time,ax,ay,az,aT
0.0050,0.0314,0.0800,-0.1028,0.134
0.0050,0.0982,0.0827,-0.0289,0.132
0.0060,0.1612,0.0783,0.0519,0.187
0.0280,0.0446,0.0226,-0.0258,0.056
0.0290,0.0826,0.0170,-0.0358,0.092
0.0310,0.0392,0.0102,-0.0823,0.092
0.0330,0.0321,-0.0153,-0.0754,0.083
0.0540,0.0929,-0.0516,-0.0472,0.116
0.0550,0.1631,-0.0627,-0.0017,0.175
0.0610,0.1393,-0.0284,-0.0122,0.143
0.0690,0.1128,-0.0232,0.0079,0.115
0.0780,0.1354,0.0082,-0.0207,0.137
0.0830,0.1348,0.0146,-0.0566,0.147
0.0940,0.1221,0.0177,-0.0394,0.130
0.1040,0.1359,0.0204,-0.0324,0.141
0.1090,0.1301,0.0199,-0.0584,0.144
0.1180,0.1210,0.0018,-0.0486,0.130
0.1280,0.0564,-0.0466,-0.0112,0.074
0.1340,0.0557,-0.0672,-0.0003,0.087
0.1430,0.0737,-0.0415,-0.0309,0.090
0.1590,0.0426,-0.0145,-0.0436,0.063
0.1610,0.0059,0.0082,-0.0439,0.045
0.1690,0.0316,-0.0028,-0.0250,0.040
0.1780,0.1264,0.0190,-0.0613,0.142
0.2060,0.0935,0.0454,-0.1234,0.161
0.2070,0.0791,0.0450,-0.1039,0.138
0.2080,0.1217,0.0326,-0.0921,0.156
0.2100,0.0784,-0.0223,-0.0621,0.102
0.2190,0.0687,-0.0724,-0.0224,0.102
0.2280,0.1495,-0.0898,0.0064,0.175
0.2340,0.1388,-0.0727,0.0213,0.158
0.2440,0.0653,-0.0139,0.0605,0.090
0.2530,0.0296,0.0370,0.0292,0.056
0.2580,0.0436,0.0382,0.0154,0.060
0.2680,0.0487,0.0297,0.0512,0.077
0.2790,0.0344,0.0249,0.0189,0.047
0.3000,0.0345,0.0399,0.0073,0.053
0.3010,0.0134,0.0300,-0.0534,0.063
0.3040,0.0631,0.0311,-0.1041,0.126
0.3380,0.0870,0.0641,-0.1812,0.211
0.3390,0.0704,0.0672,-0.1664,0.193
0.3400,0.1078,0.0332,-0.1208,0.165
0.3410,0.1060,-0.0382,-0.0815,0.139
0.3440,0.0583,-0.0363,-0.0107,0.069
0.3530,-0.0130,-0.0144,0.0326,0.038
0.3610,0.0317,-0.0365,0.0276,0.056
0.3700,0.0791,-0.0570,0.0422,0.106
0.3780,0.0364,-0.0605,0.0412,0.082
0.3840,0.0096,-0.0731,0.0487,0.088
0.3930,0.0377,-0.0813,0.0219,0.092
0.4050,0.0887,-0.0149,-0.0657,0.111
0.4090,0.1017,0.0276,-0.2309,0.254
0.4260,0.1657,0.0150,-0.2141,0.271
0.4270,0.1401,0.0110,-0.0508,0.149
0.4500,0.0886,0.0489,0.0021,0.101
0.4510,0.0916,0.0676,0.0009,0.114
0.4520,0.0576,0.0702,0.0254,0.094
0.4580,0.0322,0.0392,0.0760,0.091
0.4690,0.0689,0.0049,0.0827,0.108
0.4730,0.1182,-0.0205,0.0560,0.132
0.4840,0.0881,-0.0353,0.0218,0.097
0.4940,0.0814,-0.0278,0.0348,0.093
0.5040,0.0401,0.0007,-0.0362,0.054
0.5080,-0.0016,0.0529,-0.0809,0.097
0.5180,-0.0815,0.0565,-0.0795,0.127
0.5270,-0.0395,0.0278,-0.0285,0.056
0.5450,0.0614,0.0015,-0.0064,0.062
0.5470,0.1021,-0.0329,-0.0226,0.110
0.5600,0.0827,-0.0373,0.0182,0.093
0.5610,0.0408,-0.0232,-0.0202,0.051
0.5690,0.0792,0.0090,-0.0676,0.105
0.5740,0.0961,-0.0299,-0.0709,0.123
0.6080,0.1122,-0.0390,-0.0671,0.136
0.6110,0.1405,-0.0383,-0.0403,0.151
0.6140,0.1003,-0.0828,-0.0472,0.138
0.6170,0.0953,-0.1099,0.0002,0.145
0.6190,0.1114,-0.0447,0.0351,0.125
0.6300,0.0684,0.0088,-0.0023,0.069
0.6350,-0.0075,0.0385,-0.0164,0.043
0.6440,-0.0134,0.0952,0.0580,0.112
0.6600,-0.0293,0.1092,0.0767,0.137
0.6610,0.0021,0.0235,0.0768,0.080
0.6760,0.1064,-0.0445,0.1645,0.201
0.6770,0.1231,-0.0617,0.1218,0.184
0.6920,0.1618,-0.0532,0.0575,0.180
0.6940,0.1605,-0.0876,0.0296,0.185
0.7090,-0.0051,-0.0271,0.0076,0.029
0.7150,0.0237,0.0215,-0.0151,0.035
0.7440,0.1803,0.0043,-0.0908,0.202
0.7450,0.0289,0.0211,-0.0428,0.056
0.7460,0.1671,0.1166,0.1613,0.260
0.7480,-0.1249,-0.2291,0.1181,0.286
0.7490,-0.0939,-0.1471,0.1812,0.252
0.7590,0.0454,-0.0903,0.0927,0.137
0.7690,0.1573,-0.0172,0.0081,0.158
0.7730,0.3149,0.0133,-0.0708,0.323
0.7920,0.2564,0.1170,-0.2407,0.371
0.7940,0.1828,0.0604,-0.3581,0.407
0.8100,0.0819,0.0535,-0.1145,0.151
0.8150,-0.0004,0.0007,-0.1169,0.117
0.8440,0.0572,-0.0343,-0.0119,0.068
0.8450,0.0511,-0.0598,-0.0704,0.106
0.8460,0.1080,0.0040,-0.0323,0.113
0.8470,0.0476,0.1119,-0.2481,0.276
0.8510,0.0218,0.1524,-0.2756,0.316
0.8590,-0.0326,0.1380,-0.2332,0.273
0.8660,-0.0644,0.0843,-0.1237,0.163
0.8770,0.1244,0.0783,-0.0514,0.156
0.8930,0.2118,0.0186,-0.1002,0.235
0.8940,-0.0583,-0.0226,-0.0034,0.063
0.9270,0.0224,0.0281,0.0734,0.082
0.9280,0.0717,0.0566,0.0692,0.115
0.9290,0.0883,0.0477,-0.0437,0.109
0.9290,0.0075,-0.0090,0.0333,0.035
0.9360,-0.1202,-0.0165,0.1118,0.165
0.9390,0.1322,-0.0016,0.0306,0.136
0.9500,0.1065,-0.0498,0.0716,0.138
0.9590,0.0295,-0.0789,0.0879,0.122
0.9670,0.1110,-0.0565,0.2506,0.280
0.9740,0.0375,-0.0390,0.2973,0.302
0.9840,0.0213,-0.0227,0.2966,0.298
0.9890,0.1965,-0.0056,0.2971,0.356
1.0090,-0.1026,-0.0009,0.2606,0.280
1.0100,-0.0385,0.0580,-0.1077,0.128
1.0140,-0.0849,0.1008,-0.3523,0.376
1.0280,0.0412,0.1002,-0.3024,0.321
1.0390,-0.0985,0.0546,-0.1643,0.199
1.0400,0.0797,0.0147,-0.0495,0.095
1.0490,-0.0351,-0.0192,0.1530,0.158
1.0590,0.0678,-0.0404,0.1961,0.211
1.0630,0.0844,-0.0718,0.3238,0.342
1.0740,0.0377,-0.0819,0.3058,0.319
1.0840,0.0676,0.0024,0.1593,0.173
1.0880,-0.0015,0.0301,0.1415,0.145
1.1010,0.0132,0.0529,-0.0282,0.061
1.1080,-0.0021,0.0340,-0.1376,0.142
1.1140,0.0007,0.0259,-0.1811,0.183
1.1240,0.0744,-0.0247,-0.2498,0.262
1.1510,0.1400,-0.0809,-0.2359,0.286
1.1550,0.0869,-0.1281,-0.1699,0.230
1.1560,0.0361,-0.0793,-0.1134,0.143
1.1570,0.0459,-0.0139,-0.0848,0.097
1.1790,0.1073,0.0450,-0.1178,0.166
1.1810,0.0901,0.0368,0.0133,0.098
1.1820,0.0393,-0.0020,0.1448,0.150
1.1900,-0.0387,0.0177,0.0528,0.068
1.2000,-0.0727,0.0889,-0.1464,0.186
1.2040,-0.0524,0.0394,-0.1646,0.177
1.2190,-0.0038,0.0147,-0.1470,0.148
1.2240,0.0798,-0.0135,-0.1251,0.149
1.2290,0.1273,0.0253,-0.0753,0.150
1.2390,0.1563,-0.1120,-0.1694,0.256
1.2580,0.1288,-0.0214,0.1284,0.183
1.2590,0.1047,-0.0682,0.1061,0.164
1.2850,0.0753,-0.0188,0.1445,0.164
1.2860,0.0237,0.0524,0.0819,0.100
1.2870,0.0829,0.0405,-0.0841,0.125
1.2890,0.1628,0.0369,-0.2881,0.333
1.3000,0.1606,0.0261,-0.2926,0.335
1.3040,-0.0008,0.0326,-0.2223,0.225
1.3170,-0.1881,0.0906,-0.3441,0.403
1.3250,-0.4063,0.1533,-0.4822,0.649
1.3300,-0.3470,0.1956,-0.2925,0.494
1.3410,-0.1649,0.2192,-0.0574,0.280
1.3510,-0.0005,0.1779,-0.1799,0.253
1.3540,0.1115,0.1864,-0.1743,0.278
1.3640,0.2802,0.1928,-0.1821,0.386
1.3740,0.1195,0.0243,-0.2395,0.269
1.3790,0.0075,0.0095,-0.2893,0.290
1.3910,0.1154,-0.0043,-0.2722,0.296
1.4250,0.2086,-0.0767,-0.0954,0.242
1.4260,0.2150,-0.0546,0.2287,0.319
1.4260,0.2155,-0.0061,0.4462,0.496
1.4270,0.1508,0.0709,0.5176,0.544
1.4300,0.0342,0.1683,0.5965,0.621
1.4390,-0.0129,0.1473,0.6526,0.669
1.4490,0.0574,0.0685,0.5723,0.579
1.4540,-0.0335,-0.0458,0.5809,0.584
1.4700,-0.1216,-0.1106,0.6552,0.676
1.4740,0.1181,-0.1628,0.6534,0.684
1.4790,0.3100,-0.1512,0.3929,0.523
1.4900,0.1521,-0.2004,0.0387,0.255
1.5090,-0.1637,-0.2499,-0.1914,0.355
1.5100,-0.1516,-0.2191,-0.0487,0.271
1.5380,0.0803,-0.1240,0.0525,0.157
1.5380,0.0998,-0.0997,-0.1054,0.176
1.5390,0.0650,-0.1311,-0.1679,0.223
1.5390,0.3225,-0.1103,-0.0722,0.348
1.5440,0.3376,-0.0047,0.0368,0.340
1.5540,0.0084,0.1267,0.0784,0.149
1.5670,-0.2264,0.3043,0.0724,0.386
1.5760,-0.2985,0.3453,-0.0252,0.457
1.5910,-0.2957,0.2667,-0.1603,0.429
1.5910,-0.2073,0.1798,-0.1494,0.312
1.5970,-0.0786,0.0916,0.0186,0.122
1.5990,0.1519,-0.0915,0.2633,0.317
1.6090,0.2102,-0.3296,0.2210,0.449
1.6200,-0.0566,-0.3980,-0.0780,0.409
1.6240,-0.0693,-0.3272,-0.2600,0.424
1.6340,0.3787,-0.1868,-0.3594,0.554
1.6610,0.5422,-0.0288,-0.3505,0.646
1.6620,0.2557,0.0949,-0.2094,0.344
1.6640,0.0645,0.1641,0.0227,0.178
1.6780,0.2038,0.1957,0.0596,0.289
1.6880,0.2451,0.2072,0.0446,0.324
1.6890,0.0424,0.1292,0.1771,0.223
1.6900,-0.3805,-0.0914,-0.0979,0.403
1.7150,-0.7341,-0.3225,-0.4740,0.931
1.7160,-0.1564,-0.3743,-0.0800,0.413
1.7160,0.7280,-0.2844,0.4436,0.899
1.7240,0.6261,-0.2919,0.4235,0.810
1.7350,0.0998,-0.3698,0.1684,0.418
1.7390,0.1147,-0.2840,0.0102,0.306
1.7500,0.1437,-0.1529,-0.0147,0.210
1.7590,-0.0467,-0.0093,0.0614,0.078
1.7670,-0.0474,0.1474,0.3207,0.356
1.7740,-0.0199,0.1866,0.3614,0.407
1.7840,-0.1006,0.1711,0.3010,0.361
1.7890,-0.0923,0.1731,0.2835,0.345
1.8130,-0.1004,0.1507,0.0762,0.196
1.8140,-0.1713,0.1052,-0.4586,0.501
1.8150,-0.2346,0.0904,-1.2314,1.257
1.8270,-0.0683,0.1240,-1.7165,1.722
1.8370,0.2301,0.1859,-1.6908,1.716
1.8390,0.3090,0.1948,-1.2361,1.289
1.8500,0.2372,0.0629,-0.1172,0.272
1.8590,0.0944,-0.0720,0.9296,0.937
1.8650,-0.0471,-0.0164,1.0615,1.063
1.8740,-0.2594,0.0732,0.6990,0.749
1.8840,-0.1885,0.0755,0.3653,0.418
1.8890,0.0741,-0.0216,-0.0926,0.121
1.9000,0.2485,-0.0610,-0.5280,0.587
1.9090,0.3494,0.0285,-0.5718,0.671
1.9140,0.5756,0.0341,-0.5271,0.781
1.9250,0.5572,-0.0466,-0.7788,0.959
1.9650,0.3105,-0.0851,-0.9002,0.956
1.9670,0.3048,-0.1118,-0.3698,0.492
1.9680,0.3577,-0.3036,0.8989,1.014
1.9690,-0.1914,-0.5924,1.9598,2.056
1.9710,-0.6477,-0.4389,1.9938,2.142
1.9910,-0.1784,-0.0081,1.3157,1.328
1.9930,0.1498,0.3035,0.6415,0.725
1.9940,-0.0324,0.3281,-0.1080,0.347
2.0000,-0.1769,0.2795,-0.9725,1.027
2.0120,-0.0164,0.3197,-1.7214,1.751
2.0220,0.2609,0.8439,-1.8907,2.087
2.0250,0.4442,0.0204,-1.4542,1.521
2.0460,-0.1159,-0.0211,-0.7658,0.775
2.0520,-0.1684,0.1179,-0.0047,0.206
2.0530,-0.3675,0.0160,0.6766,0.770
2.0550,-0.2187,-0.0131,0.6924,0.726
2.0680,-0.1213,0.0206,0.1519,0.195
2.0860,-0.1634,0.0497,-0.4421,0.474
2.0870,0.0005,0.0891,-0.6395,0.646
2.1220,0.2397,0.1069,-0.6586,0.709
2.1230,0.2948,0.0661,-0.6400,0.708
2.1240,0.3960,0.0567,-0.2941,0.497
2.1250,0.5068,-0.0095,0.3144,0.596
2.1260,0.5490,-0.0021,0.6514,0.852
2.1330,0.2261,-0.0034,0.7721,0.805
2.1430,-0.0069,-0.0276,0.7171,0.718
2.1500,-0.1237,-0.0125,0.6179,0.630
2.1540,-0.1435,-0.0099,0.3796,0.406
2.1680,0.1705,-0.0104,0.2639,0.314
2.1740,0.5938,0.0354,0.3171,0.674
2.1790,0.7716,0.0358,0.2118,0.801
2.1900,0.6451,0.0164,-0.0870,0.651
2.2160,0.2062,0.0426,-0.2487,0.326
2.2210,-0.3889,1.1341,0.0896,1.202
2.2250,0.1389,-0.6726,-0.1572,0.705
2.2260,0.0424,-0.2325,0.7454,0.782
2.2290,0.5831,-0.1144,1.1174,1.266
2.2410,0.5732,0.2968,1.3386,1.486
2.2500,0.6337,0.8234,1.3334,1.690
2.2550,0.1374,-0.8256,-0.0455,0.838
2.2660,-0.5001,-0.0379,-0.3108,0.590
2.2740,-0.7140,-0.1985,-0.8822,1.152
2.2790,-0.5052,0.0175,-0.9595,1.085
2.2900,0.0983,0.2848,-0.9804,1.026
2.3020,-0.3980,-0.0487,-0.9085,0.993
2.3040,-0.1339,0.0301,-0.5993,0.615
2.3170,-0.0470,0.0688,-0.3887,0.398
2.3260,-0.2929,0.0454,-0.4504,0.539
2.3300,-0.4486,0.0371,-0.3995,0.602
2.3400,-0.4176,0.0468,-0.2430,0.485
2.3730,-0.4345,0.0307,-0.2599,0.507
2.3750,-0.2414,0.0110,-0.2637,0.358
2.3760,0.2289,-0.0017,-0.1157,0.256
2.3770,0.3277,-0.0041,0.0724,0.336
2.4060,0.2344,-0.0579,0.1348,0.277
2.4070,0.3821,-0.0489,0.1723,0.422
2.4080,0.5469,-0.0476,0.2511,0.604
2.4090,0.4988,-0.0379,0.2802,0.573
2.4190,0.3257,-0.0157,0.3096,0.450
2.4220,0.2743,0.0110,0.3723,0.463
2.4300,0.2622,0.0084,0.4019,0.480
2.4400,0.1681,-0.0204,0.3802,0.416
2.4440,0.0425,-0.0324,0.2864,0.291
2.4580,-0.0470,-0.0121,0.1803,0.187
2.4760,-0.1978,-0.0350,0.0651,0.211
2.5230,0.0178,-0.0115,0.0515,0.056
2.5240,0.1847,0.0312,-0.1421,0.235
2.5250,0.0311,0.0597,-0.4414,0.447
2.5260,0.0916,0.0800,-0.5069,0.521
2.5280,0.1497,0.0640,-0.4615,0.489
2.5330,0.3543,0.0794,-0.2348,0.432
2.5340,0.3913,0.0921,-0.0879,0.411
2.5370,0.2034,0.0568,-0.0157,0.212
2.5400,0.1129,0.0540,0.1599,0.203
2.5460,0.0096,0.0151,0.2849,0.285
2.5540,-0.0899,-0.0380,0.3487,0.362
2.5660,-0.1727,-0.0692,0.3643,0.409
2.5700,-0.2338,-0.1107,0.3268,0.417
2.5800,-0.1961,-0.1158,0.3058,0.381
2.5900,-0.0808,-0.0793,0.2293,0.256
2.5940,-0.0577,-0.0973,0.1920,0.223
2.6040,0.2023,-0.0512,0.2768,0.347
2.6350,0.4123,0.0130,0.2445,0.479
2.6360,0.3652,0.0225,0.1409,0.392
2.6370,0.2314,0.0215,0.0096,0.233
2.6470,0.0497,0.0254,-0.1013,0.116
2.6480,-0.0604,0.0447,-0.1975,0.211
2.6650,-0.0707,0.0633,-0.2901,0.305
2.6660,-0.0900,0.0626,-0.3078,0.327
2.6700,-0.0466,0.0445,-0.2540,0.262
2.6830,0.0132,0.0426,-0.2409,0.245
2.6900,-0.0139,0.0347,-0.2551,0.258
2.6970,-0.0932,0.0146,-0.2934,0.308
2.7050,-0.1352,-0.0105,-0.3367,0.363
2.7180,0.0225,-0.0072,-0.2207,0.222
2.7200,0.2289,0.0096,-0.0048,0.229
2.7300,0.2950,-0.0048,0.1715,0.341
2.7400,0.3196,-0.0022,0.2690,0.418
2.7450,0.2245,-0.0014,0.3509,0.417
2.7580,0.0934,0.0001,0.2594,0.276
2.7820,0.0232,0.0102,0.0940,0.097
2.7830,-0.0358,0.0222,-0.0482,0.064
2.7840,-0.0458,0.0265,-0.1273,0.138
2.7850,-0.0376,0.0215,-0.2458,0.250
2.7950,-0.0568,0.0272,-0.3097,0.316
2.8050,-0.0029,0.0343,-0.2182,0.221
2.8090,0.0851,0.0385,-0.1023,0.139
2.8200,0.0520,0.0208,-0.0299,0.063
2.8300,0.0394,0.0062,-0.0127,0.042
2.8350,0.0956,-0.0075,0.0151,0.097
2.8450,0.0911,-0.0188,0.0545,0.108
2.8550,0.1098,-0.0254,0.1185,0.164
2.8600,0.1122,-0.0070,0.1885,0.220
2.8740,0.1293,0.0308,0.3191,0.346
2.8800,0.1186,0.0374,0.2634,0.291
2.9080,0.1312,0.0476,0.1449,0.201
2.9090,0.1221,0.0385,0.0212,0.130
2.9100,0.0296,-0.0096,-0.1014,0.106
2.9110,-0.0619,-0.0147,-0.1684,0.180
2.9200,-0.0354,-0.0258,-0.1789,0.184
2.9300,0.0441,-0.0722,-0.0775,0.115
2.9360,0.1671,-0.0934,0.0970,0.215
2.9460,0.2420,-0.0692,0.1189,0.278
2.9560,0.4364,0.0068,0.0525,0.440
2.9600,0.0383,0.0450,0.0416,0.072
2.9710,0.1342,0.0822,-0.0520,0.166
2.9860,0.2207,0.1300,-0.0332,0.258
2.9870,-0.1487,0.0338,-0.1726,0.230
2.9950,-0.1461,-0.0057,-0.2134,0.259
3.0050,0.0183,-0.0159,-0.1182,0.121
3.0100,0.2112,0.0242,-0.0108,0.213
3.0280,0.1046,-0.0038,0.0001,0.105
3.0310,0.0753,-0.0138,0.0041,0.077
3.0720,0.0391,-0.0367,-0.0277,0.060
3.0740,0.0073,-0.0428,-0.0263,0.051
3.0750,0.1427,-0.0348,0.0177,0.148
3.0760,0.1245,-0.0292,0.1197,0.175
3.0770,-0.0835,-0.0681,0.1517,0.186
3.0810,0.2648,0.0074,0.2440,0.360
3.0860,0.2664,0.0359,0.2922,0.397
3.0950,-0.4555,-0.1014,0.1776,0.499
3.1060,0.1793,0.0157,0.1188,0.216
3.1100,-0.0579,0.0027,0.0475,0.075
3.1220,-0.7813,-0.1383,-0.0837,0.798
3.1300,0.0305,-0.0035,-0.0941,0.099
3.1360,1.0012,0.0917,-0.1054,1.011
3.1450,0.2814,0.0404,-0.1843,0.339
3.1700,-0.3986,-0.1588,0.0385,0.431
3.1720,0.1227,-0.0819,0.2702,0.308
3.1730,0.1108,-0.1120,0.2431,0.290
3.1750,0.0023,-0.1223,0.1090,0.164
3.2070,0.4807,-0.0292,0.0182,0.482
3.2080,0.0248,-0.0964,0.1280,0.162
3.2090,-0.2672,-0.1733,0.0625,0.325
3.2100,0.1675,-0.0228,-0.0461,0.175
3.2250,0.2342,0.0610,-0.3801,0.451
3.2270,1.1428,0.4695,-0.7128,1.426
3.2360,-0.5743,-0.2269,-0.2497,0.666
3.2470,-0.3905,-0.0115,-0.1552,0.420
3.2540,0.1512,0.1403,-0.0008,0.206
3.2600,0.3834,0.2977,-0.0491,0.488
3.2710,-0.6548,-0.1168,0.1333,0.678
3.2770,0.0481,0.0404,0.0885,0.109
3.2940,0.2283,0.0631,-0.1333,0.272
3.2960,0.1092,0.0405,-0.2702,0.294
3.3060,0.1261,0.0651,-0.1665,0.219
3.3260,0.1295,0.0389,0.0207,0.137
3.3270,0.2263,0.0345,0.1113,0.255
3.3270,0.2312,0.0209,0.1229,0.263
3.3360,0.2046,0.0177,0.2701,0.339
3.3460,0.1137,0.0006,0.3908,0.407
3.3540,0.0808,0.0056,0.4235,0.431
3.3600,0.0714,0.0041,0.4202,0.426
3.3710,0.0462,0.0020,0.3454,0.348
3.3760,0.0338,-0.0007,0.2395,0.242
3.3860,0.1011,0.0066,0.1456,0.177
3.3950,0.1072,-0.0078,0.0688,0.128
3.4040,0.0374,-0.0009,-0.0592,0.070
3.4100,-0.2386,0.0109,-0.2346,0.335
3.4410,-0.2528,0.0830,-0.2896,0.393
3.4420,-0.0639,0.0683,-0.2964,0.311
3.4420,0.2511,0.0305,-0.3433,0.426
3.4450,0.1377,0.0593,-0.4007,0.428
3.4510,-0.2218,0.0163,-0.1996,0.299
3.4600,0.0855,-0.0109,0.0100,0.087
3.4710,0.4073,0.0428,0.1306,0.430
3.4750,-0.0873,-0.0625,0.0860,0.138
3.4860,-0.2077,-0.0657,0.1530,0.266
3.4960,-0.4759,-0.1605,0.0498,0.505
3.5000,0.6627,0.0735,0.0138,0.667
3.5100,0.0716,-0.0143,-0.0132,0.074
3.5260,-0.0547,-0.0236,-0.0331,0.068
3.5280,-0.0012,0.0090,-0.1243,0.125
3.5680,-0.1138,-0.0158,-0.1900,0.222
3.5690,-0.1290,-0.0094,-0.1803,0.222
3.5700,-0.0987,-0.0107,-0.1293,0.163
3.5710,-0.0163,-0.0028,-0.1425,0.143
3.5720,0.0492,0.0290,-0.2293,0.236
3.5760,0.0614,0.0140,-0.2324,0.241
3.5870,0.0724,0.0082,-0.1359,0.154
3.5900,-0.0091,-0.0063,-0.0648,0.066
3.6010,-0.0724,-0.0045,-0.0275,0.078
3.6110,-0.1010,-0.0131,0.0352,0.108
3.6210,-0.0795,-0.0249,0.0582,0.102
3.6260,0.0199,-0.0064,-0.0098,0.023
3.6360,0.1345,0.0225,-0.0519,0.146
3.6410,0.1588,0.0267,0.0933,0.186
3.6620,0.0938,-0.0255,0.2305,0.250
3.6670,-0.0206,-0.0545,0.2560,0.263
3.6700,-0.1507,-0.0341,0.0548,0.164
3.7040,-0.2163,-0.0198,0.0143,0.218
3.7050,-0.2087,-0.0541,0.0913,0.234
3.7060,-0.1954,-0.0472,0.0108,0.201
3.7080,-0.0615,-0.0153,0.0056,0.064
3.7100,0.1621,-0.0036,0.0683,0.176
3.7210,0.4480,0.0836,-0.0056,0.456
3.7260,-0.0383,0.0466,-0.1415,0.154
3.7360,-0.0021,0.0664,-0.1548,0.168
3.7400,0.0616,0.0541,-0.0773,0.113
3.7510,0.0495,-0.0863,0.3274,0.342
3.7610,0.1378,-0.0930,0.4880,0.516
3.7700,0.0271,-0.0807,0.3615,0.371
3.7760,-0.1432,-0.0488,0.2328,0.278
3.7870,0.0051,0.0448,0.0381,0.059
3.7910,-0.0402,0.0602,-0.1991,0.212
3.8110,-0.0267,0.1059,-0.5149,0.526
3.8130,-0.0160,0.1567,-0.6599,0.678
3.8190,0.2654,0.1727,-0.6359,0.710
3.8530,0.3132,0.2288,-0.5355,0.661
3.8550,0.1583,0.2130,-0.3694,0.455
3.8560,0.0676,0.1576,-0.1038,0.200
3.8570,-0.1009,0.0083,0.2215,0.244
3.8580,-0.0489,-0.0621,0.4089,0.416
3.8700,-0.0767,-0.0969,0.5203,0.535
3.8780,0.1560,-0.1310,0.6106,0.644
3.8840,0.2164,-0.1280,0.6405,0.688
3.8910,0.0776,-0.1331,0.5069,0.530
3.9030,0.0402,-0.1338,0.4237,0.446
3.9060,0.0373,-0.1436,0.2886,0.325
3.9180,-0.1425,-0.0902,-0.0458,0.175
3.9260,-0.2403,0.0054,-0.3661,0.438
3.9340,-0.0396,0.0678,-0.4199,0.427
3.9410,0.0580,0.1000,-0.2922,0.314
3.9610,-0.0437,0.1100,-0.2494,0.276
3.9730,-0.1333,0.1054,-0.1637,0.236
3.9760,-0.2047,0.0789,-0.1259,0.253
3.9780,-0.0616,0.1477,0.0289,0.163
4.0150,-0.0139,0.1815,0.1059,0.211
4.0160,-0.0802,0.2681,0.0819,0.292
4.0180,-0.0143,0.2090,0.0764,0.223
4.0190,-0.2419,0.0639,-0.0778,0.262
4.0210,-0.3291,-0.0055,-0.1170,0.349
4.0270,0.0285,-0.0392,0.1231,0.132
4.0310,0.0033,0.0282,0.2483,0.250
4.0420,-0.3262,0.0656,0.2873,0.440
4.0640,0.1298,0.1501,0.4085,0.454
4.0650,0.4323,0.1429,0.6265,0.775
4.1160,0.0881,0.0764,0.7003,0.710
4.1180,-0.1426,0.0975,0.6868,0.708
4.1190,-0.2920,0.1225,0.5849,0.665
4.1200,-0.5633,0.1203,0.5022,0.764
4.1210,-0.6055,0.1369,0.5203,0.810
4.1220,-0.5170,0.1839,0.5116,0.750
4.1260,-0.5417,0.2493,0.3870,0.711
4.1270,-0.7026,0.2800,0.2567,0.799
4.1510,-0.8576,0.0063,0.1011,0.864
4.1530,-1.1862,-0.0249,-0.2750,1.218
4.1550,-1.0960,-0.0639,-0.3512,1.153
4.1570,-0.2763,-0.0640,-0.0087,0.284
4.1870,0.9500,0.2654,0.2767,1.024
4.1930,1.0008,0.4621,0.3292,1.150
4.1950,0.2113,0.3689,0.1410,0.448
4.1960,0.0552,0.2311,-0.1857,0.302
4.2230,0.3329,0.1018,-0.3084,0.465
4.2240,0.3644,0.0441,-0.4087,0.549
4.2250,0.3859,-0.0489,-0.6430,0.751
4.2260,0.3403,-0.0610,-1.0320,1.088
4.2430,0.1016,0.1800,-1.3054,1.322
4.2440,-0.3764,0.4909,-1.6944,1.804
4.2470,-0.2930,0.8259,-1.6938,1.907
4.2560,-0.0595,1.1272,-1.7407,2.075
4.2710,-0.3712,1.2813,-1.6026,2.085
4.2720,-0.5866,1.2089,-1.2138,1.811
4.2850,-0.8232,1.1597,-1.0487,1.767
4.2910,-0.9714,1.1066,-1.0884,1.831
4.2970,-0.4665,1.4617,-1.7490,2.327
4.3150,-0.0340,2.1858,-2.7672,3.526
4.3170,0.1318,2.7384,-3.3640,4.340
4.3630,0.5548,3.4060,-3.7236,5.077
4.3650,-0.1845,3.3750,-2.8571,4.426
4.3670,-1.5937,2.3913,-1.6208,3.299
4.3690,-2.6055,1.7734,-1.0170,3.312
4.3710,-3.7241,1.6515,-0.8381,4.159
4.3730,-4.0145,1.6019,-0.0148,4.322
4.3880,-4.6846,1.7041,0.7645,5.043
4.3890,-5.1432,1.4734,0.8667,5.420
4.3910,-5.2666,1.2951,1.0021,5.515
4.3970,-5.2476,1.0237,1.0272,5.444
4.4060,-5.0602,0.6519,0.9613,5.192
4.4390,-4.9591,0.1468,0.8845,5.039
4.4440,-4.8723,-0.3468,0.7536,4.942
4.4460,-4.7552,-0.7487,0.5956,4.851
4.4470,-4.7363,-1.0455,0.4644,4.872
4.4490,-4.7048,-1.2548,0.3399,4.881
4.4710,-4.7282,-1.4496,0.3613,4.959
4.4720,-4.5817,-1.5402,0.3836,4.849
4.4740,-4.5261,-1.4774,0.3111,4.771
4.4840,-4.7176,-1.4148,0.3435,4.937
4.4910,-4.9018,-1.3995,0.4406,5.117
4.4960,-5.0477,-1.2738,0.5812,5.238
4.5060,-5.2106,-1.0714,0.6672,5.361
4.5160,-5.3269,-0.7753,0.6775,5.426
4.5210,-5.2902,-0.4924,0.6122,5.348
4.5320,-5.2932,-0.3195,0.5281,5.329
4.5410,-5.1687,-0.1802,0.4004,5.187
4.5460,-4.6938,-0.0327,0.2284,4.699
4.5570,-4.4408,0.1065,0.0406,4.442
4.5830,-4.3779,0.2622,-0.1888,4.390
4.5850,-3.7360,0.4527,-0.3755,3.782
4.5860,-2.4409,0.6880,-0.4540,2.576
4.5870,-1.2279,0.9219,-0.5056,1.617
4.5960,-0.7253,1.0781,-0.6876,1.470
4.6100,-0.9469,1.1358,-0.9261,1.745
4.6110,-1.4909,1.1314,-1.0841,2.163
4.6220,-1.8134,1.1861,-1.1679,2.462
4.6340,-1.7098,1.4190,-1.3267,2.588
4.6360,-1.2422,1.6631,-1.6969,2.681
4.6480,-0.8608,1.8576,-1.8370,2.751
4.6570,-0.9734,1.7390,-1.9527,2.790
4.6620,-1.6048,1.3843,-1.9838,2.903
4.6720,-2.3844,0.9598,-1.7903,3.132
4.6830,-2.2749,0.5732,-1.4792,2.773
4.6870,-1.2830,0.3788,-1.2017,1.798
4.6970,0.4365,0.4214,-0.7435,0.960
4.7080,3.3637,0.7355,-0.6201,3.499
4.7130,6.7070,1.3000,-1.1862,6.934
4.7400,7.8661,1.7567,-1.8102,8.261
4.7420,5.9691,1.7793,-1.8336,6.493
4.7480,2.7883,1.2619,-1.6221,3.464
4.7490,0.7287,0.5392,-1.2261,1.525
4.7910,0.1584,-0.1853,-0.6239,0.670
4.7930,0.6129,-0.7811,0.2125,1.015
4.7980,1.3644,-1.2191,1.0023,2.086
4.7990,1.5414,-1.4134,1.4261,2.531
4.8010,0.8083,-1.2861,1.8357,2.383
4.8020,-0.4505,-0.9716,2.1838,2.432
4.8090,-1.2015,-0.6134,2.7385,3.053
4.8120,-0.2158,-0.2795,3.4201,3.438
4.8240,3.1022,0.1136,3.5370,4.706
4.8370,7.4359,0.4869,2.4876,7.856
4.8380,10.2408,0.8118,0.9343,10.315
4.8480,9.7663,0.7873,0.2336,9.801
4.8660,7.4013,0.2151,0.2357,7.408
4.8670,4.8958,-0.6321,0.9199,5.021
4.8710,2.8043,-1.3709,1.8942,3.651
4.9060,1.4042,-1.7201,2.3095,3.204
4.9080,1.0535,-1.4509,1.9613,2.657
4.9090,1.3382,-0.8294,1.1134,1.928
4.9100,1.6106,-0.4466,0.4760,1.738
4.9120,1.7810,-0.5174,0.4295,1.904
4.9220,1.7919,-0.9954,0.9830,2.273
4.9330,2.1357,-1.4505,1.5841,3.029
4.9370,3.1353,-1.8119,2.0671,4.170
4.9470,5.5510,-1.7405,2.3568,6.277
4.9530,9.3605,-1.3146,1.6311,9.592
4.9690,12.6650,-0.2537,-0.3468,12.672
4.9740,12.8750,0.9428,-2.2201,13.099
4.9770,10.5590,1.2883,-3.0399,11.063
4.9870,7.2308,0.6721,-2.5047,7.682
4.9970,3.9989,-0.4135,-1.0826,4.163
5.0090,1.8668,-1.6237,0.0112,2.474
5.0120,1.1805,-2.5021,0.5530,2.821
5.0530,1.4769,-2.7041,0.4563,3.115
5.0550,2.2237,-2.3924,-0.5022,3.305
5.0560,3.0075,-2.0520,-1.6217,3.986
5.0570,3.4452,-1.9731,-1.9651,4.430
5.0590,3.5586,-2.1168,-1.6422,4.454
5.0620,3.8849,-2.4151,-1.1291,4.712
5.0720,4.7669,-2.5749,-0.7426,5.469
5.0770,5.6209,-2.3575,-0.9531,6.169
5.0870,4.9519,2.5548,-5.8063,8.047
5.0980,5.0746,12.9155,-20.0296,24.367
5.1030,5.8579,3.9116,-16.4323,17.878
5.1120,2.3280,0.8375,2.4604,3.489
5.1220,-4.8831,4.0884,11.4647,13.115
5.1290,-3.9694,-1.0570,18.8415,19.284
5.1380,-0.3037,1.0844,13.6267,13.673
5.1480,0.4545,0.6041,5.3411,5.394
5.1520,-2.2636,0.1176,-1.6412,2.798
5.1660,-3.0542,-0.4942,-3.6125,4.756
5.1710,-0.7839,-0.9544,-1.9682,2.324
5.1760,4.2514,-0.9599,0.7641,4.425
5.1870,7.0205,-0.5645,1.7366,7.254
5.1970,3.6001,-0.4092,1.1225,3.793
5.2020,-1.4791,-0.5077,0.4532,1.628
5.2120,-1.2201,-0.0732,0.1584,1.232
5.2220,0.6268,0.6829,0.0415,0.928
5.2270,-0.6746,0.4824,0.2962,0.881
5.2370,-1.8694,-0.0899,0.1034,1.874
5.2460,0.3882,0.0207,0.3468,0.521
5.2530,2.3998,0.1700,0.3292,2.428
5.2610,1.1614,-0.0826,-0.0337,1.165
5.2820,0.1894,-0.1468,0.0585,0.247
5.2870,0.6298,0.0123,0.4635,0.782
5.2880,0.5621,0.0574,0.7137,0.910
5.3130,-0.1354,-0.0904,0.5175,0.543
5.3150,-0.2762,0.0424,0.1340,0.310
5.3160,0.4305,0.1939,0.0996,0.483
5.3170,0.6226,0.3948,0.0067,0.737
5.3280,-0.1221,-0.1468,-0.1788,0.262
5.3370,-0.0279,0.1800,-0.7695,0.791
5.3420,0.0842,0.2155,-1.2648,1.286
5.3520,0.5073,0.2117,-1.3339,1.443
5.3620,0.4075,0.0704,-1.1888,1.259
5.3670,-0.1016,0.0360,-0.8834,0.890
5.3770,0.1994,0.0528,-0.3678,0.422
5.3890,0.0259,-0.0460,0.0405,0.067
5.3940,0.1639,0.0513,0.1495,0.228
5.4110,-0.0295,0.0277,0.0525,0.066
5.4130,-0.0146,0.0146,-0.0471,0.051
5.4520,0.0586,0.0092,-0.0746,0.095
5.4540,0.0856,-0.0626,-0.0972,0.144
5.4550,0.0193,-0.0546,-0.1100,0.124
5.4560,-0.0525,-0.0532,-0.1010,0.126
5.4570,-0.1420,-0.0516,-0.1106,0.187
5.4620,-0.0944,-0.0726,0.0928,0.151
5.4700,-0.0323,-0.0722,0.3090,0.319
5.4770,-0.1458,-0.0948,0.3721,0.411
5.4900,-0.2324,-0.0991,0.5421,0.598
5.4920,-0.1582,-0.0648,0.5350,0.562
5.5030,-0.0596,-0.1436,0.3687,0.400
5.5120,-0.0862,-0.0718,0.1499,0.187
5.5170,-0.0814,-0.0154,-0.1801,0.198
5.5270,-0.1328,-0.0135,-0.5411,0.557
5.5370,0.0631,0.0535,-0.6476,0.653
5.5420,0.2071,0.0504,-0.5565,0.596
5.5620,0.1907,-0.0072,-0.4256,0.466
5.5640,-0.0767,-0.0211,-0.0289,0.085
5.6120,-0.3578,0.0219,0.2695,0.449
5.6140,-0.3739,-0.0214,0.1597,0.407
5.6150,-0.4141,-0.0409,0.0898,0.426
5.6170,-0.5771,-0.0141,0.0193,0.578
5.6180,0.1282,0.2169,-0.1456,0.291
5.6190,-0.6095,0.0023,-0.3933,0.725
5.6200,-0.2832,0.0743,-0.4564,0.542
5.6280,-0.1072,0.1045,-0.4361,0.461
5.6380,-0.0923,0.0875,-0.1923,0.231
5.6410,0.1002,0.1066,0.1298,0.196
5.6540,-0.0813,0.0390,0.0775,0.119
5.6620,0.0618,0.0555,-0.0647,0.105
5.6690,0.3210,0.0606,-0.1150,0.346
5.6770,0.1596,0.1752,-0.3313,0.407
5.6830,-0.2247,0.3257,-0.6062,0.724
5.6920,-0.4411,0.4780,-0.6751,0.937
5.7020,-0.2753,0.6110,-0.6890,0.961
5.7070,-0.4146,0.6191,-0.5911,0.951
5.7330,-0.7223,0.6799,-0.3672,1.058
5.7340,-0.6701,0.7255,0.0400,0.988
5.7350,-0.5397,0.5199,0.4247,0.861
5.7570,-0.8468,0.5627,0.6118,1.187
5.7590,-1.1985,0.5962,1.0559,1.705
5.7600,-1.2717,0.7462,2.3104,2.741
5.7680,-1.1900,1.0820,2.1377,2.675
5.7770,-1.2646,1.4148,0.6423,2.003
5.7820,-1.4455,1.8844,0.2454,2.388
5.7980,-1.5699,2.0029,-0.3092,2.564
5.8030,-2.0641,2.4707,-0.8401,3.327
5.8070,-2.8373,2.7561,-0.6349,4.006
5.8270,-3.3059,2.8726,-0.2439,4.386
5.8290,-4.2057,3.8227,0.6688,5.723
5.8510,-5.7721,5.3841,0.9738,7.953
5.8530,-6.9492,6.0244,-0.6900,9.223
5.8550,-5.8131,4.1795,-0.7625,7.200
5.8600,-5.7721,3.7811,-0.1690,6.902
5.8680,-7.1201,4.0892,-0.3867,8.220
5.8770,-8.3996,4.5172,-1.0906,9.599
5.8840,-9.4037,4.8353,-1.5758,10.691
5.8940,-9.6490,4.6504,-1.3463,10.795
5.9030,-8.7055,4.4328,-1.1651,9.838
5.9100,-5.5182,5.1167,-1.3824,7.651
5.9210,-0.6594,6.6449,-1.3006,6.803
5.9270,3.0303,8.2079,-1.9842,8.972
5.9350,3.6177,9.2946,-2.0955,10.192
5.9430,0.9707,7.5543,-1.5315,7.769
5.9610,0.7961,6.9804,-1.9705,7.297
5.9700,2.9741,7.7761,-1.9390,8.548
5.9720,3.3498,7.4293,-2.4630,8.514
6.0040,-5.5146,5.9911,-3.8501,9.007
6.0060,-15.2117,2.0723,-0.6106,15.364
6.0080,-12.2148,-0.8916,-0.8586,12.277
6.0090,-3.6028,1.7176,-2.2015,4.558
6.0110,-6.1759,2.2896,-1.9463,6.868
6.0200,-10.7946,0.9637,-3.5284,11.397
6.0280,-11.3665,0.7107,-3.1359,11.813
6.0390,-11.6614,0.2238,-1.9476,11.825
6.0420,-12.2652,-0.6720,-1.9407,12.436
6.0540,-11.6164,-0.9871,-1.5920,11.767
6.0570,-10.6512,-1.0308,-1.4137,10.794
6.0680,-10.2900,-1.2753,-1.7323,10.512
6.0720,-9.6052,-1.4573,-1.7978,9.880
6.1040,-9.7644,-1.3093,-1.4250,9.954
6.1060,-9.7309,-1.2174,-1.9298,9.995
6.1070,-8.8319,-1.0050,-2.1185,9.138
6.1090,-7.9498,-0.7992,-1.7149,8.172
6.1400,-6.9968,-0.6160,-1.6070,7.205
6.1420,-6.1181,-0.2259,-1.7670,6.372
6.1430,-5.4084,0.2455,-2.1258,5.816
6.1450,-4.4035,0.6486,-2.1513,4.944
6.1470,-3.2948,0.8934,-1.9064,3.910
6.1580,-2.7124,1.1034,-1.8465,3.462
6.1730,-2.3722,1.3329,-1.7878,3.256
6.1750,-1.8909,1.5785,-1.6355,2.957
6.1860,-1.5060,1.8695,-1.5768,2.872
6.1920,-1.1203,2.2393,-1.6230,2.984
6.1980,-0.6221,2.6292,-1.4666,3.074
6.2080,-0.1000,3.0088,-1.6396,3.428
6.2290,0.0578,3.3783,-2.0191,3.936
6.2320,-0.1323,3.5736,-2.0692,4.132
6.2340,0.5169,3.6440,-1.9610,4.170
6.2750,2.4158,3.7072,-1.9055,4.818
6.2800,4.1048,3.6097,-1.7436,5.738
6.2820,4.5818,3.4431,-2.2312,6.150
6.2840,4.4088,3.2717,-2.6602,6.101
6.2860,4.0661,2.9058,-2.4118,5.549
6.2880,3.8467,2.4663,-2.0669,5.015
6.2920,4.4018,2.3289,-1.9493,5.348
6.3020,6.0247,2.4691,-1.8127,6.759
6.3080,7.7311,2.5632,-1.8300,8.348
6.3180,9.1732,2.5636,-1.8127,9.696
6.3220,10.5347,2.2736,-1.7630,10.921
6.3320,12.3295,1.6454,-1.9943,12.598
6.3440,14.4671,0.7226,-1.7920,14.596
6.3480,15.7744,-0.7127,-0.4353,15.797
6.3670,15.7516,-2.2125,0.7495,15.924
6.3750,15.6919,-3.2951,1.2782,16.085
6.3770,15.3288,-3.8965,1.3254,15.872
6.3960,14.3249,-4.0878,1.0154,14.931
6.3960,14.1313,-3.7704,0.2074,14.627
6.4080,15.1851,-3.1595,-0.5092,15.519
6.4100,15.3242,-2.9572,-0.1747,15.608
6.4180,14.1980,-3.3841,1.1568,14.641
6.4230,13.2826,-4.1921,2.4799,14.148
6.4330,13.0973,-4.8373,3.2638,14.338
6.4370,12.6483,-5.1400,3.5651,14.111
6.4470,10.4520,-4.4098,2.7364,11.670
6.4580,-0.9922,7.9767,-4.0859,9.017
6.4620,5.0551,9.9240,-22.1722,24.812
6.4720,15.4062,-3.9535,-20.1917,25.704
6.4890,7.1059,-4.4029,3.3981,9.024
6.4900,7.4300,6.6802,25.6846,27.560
6.5210,14.9056,7.1860,21.3958,27.048
6.5220,12.2619,2.2954,22.0014,25.292
6.5230,9.2138,-0.5099,9.9577,13.576
6.5240,1.2807,-0.9208,1.3040,2.047
6.5350,-0.5504,-1.3489,-2.6972,3.065
6.5380,2.1528,-1.0217,-1.1797,2.659
6.5470,2.7674,-0.4193,0.5731,2.857
6.5580,0.8035,-0.0658,1.2794,1.512
6.5620,0.2460,0.2044,0.9712,1.023
6.5730,0.5675,0.3770,0.2094,0.713
6.5830,0.4848,0.3677,-0.3465,0.700
6.5880,-0.0549,0.2795,-0.4367,0.521
6.6000,0.1442,0.2584,-0.6540,0.718
6.6070,0.0806,0.2282,-0.3664,0.439
6.6120,0.0414,0.0708,-0.2198,0.235
6.6230,-0.1806,0.1252,-0.3433,0.408
6.6440,0.0218,0.1106,-0.5753,0.586
6.6450,0.3746,0.1799,-0.5605,0.698
6.6720,0.2396,0.1411,-0.3965,0.484
6.6730,0.2535,0.0966,-0.1649,0.318
6.6740,0.4063,0.0847,0.2076,0.464
6.6750,0.4032,0.0096,0.4262,0.587
6.6840,0.2386,0.0601,0.2551,0.354
6.6910,-0.1267,0.0603,-0.1639,0.216
6.6990,-0.3332,0.0721,-0.5672,0.662
6.7080,-0.3205,0.0824,-0.8002,0.866
6.7130,-0.3576,0.0987,-0.8656,0.942
6.7230,-0.4279,0.1163,-0.8884,0.993
6.7330,-0.3085,0.1223,-0.7113,0.785
6.7380,-0.2008,0.1072,-0.3694,0.434
6.7490,-0.1498,-0.0261,0.0534,0.161
6.7580,-0.0748,-0.2051,0.6815,0.716
6.7620,-0.1021,-0.3277,1.0815,1.135
6.7730,-0.3389,-0.3194,1.0132,1.115
6.8120,-0.5168,-0.1834,0.5850,0.802
6.8140,-0.1855,-0.0175,-0.0232,0.188
6.8160,0.8963,0.1680,-0.4142,1.002
6.8190,-0.4165,-0.0307,-0.6682,0.788
6.8200,-0.3653,0.1173,-0.8174,0.903
6.8460,-0.2045,0.1743,-0.7851,0.830
6.8480,-0.3487,0.1537,-0.4578,0.596
6.8490,-0.2370,0.0738,-0.0277,0.250
6.8500,-0.0794,-0.0031,0.3155,0.325
6.8570,-0.0455,0.0815,0.3528,0.365
6.8660,0.0563,0.2552,0.2098,0.335
6.8730,0.0602,0.3839,-0.1145,0.405
6.8780,-0.0667,0.4014,-0.3142,0.514
6.8880,-0.1419,0.3504,-0.3458,0.512
6.8980,-0.1210,0.4288,-0.4180,0.611
6.9130,-0.3904,0.5449,-0.4277,0.795
6.9150,-0.8861,0.7289,-0.3661,1.204
6.9640,-1.3805,1.0877,-0.3898,1.800
6.9650,-1.4469,1.2608,-0.3383,1.949
6.9660,-0.9578,1.3136,0.0851,1.628
6.9680,-1.0978,1.4079,1.2154,2.160
6.9690,-2.2189,1.6247,2.5169,3.728
6.9710,-2.5672,2.0237,1.4794,3.588
6.9740,-2.5931,2.4971,-0.3463,3.617
6.9780,-2.8679,3.3366,-0.4775,4.426
6.9900,-3.0119,2.9377,0.6276,4.254
7.0040,-3.0107,2.1477,1.0153,3.835
7.0060,-3.0811,2.1971,0.8161,3.871
7.0140,-3.2887,2.5339,0.5781,4.192
7.0230,-3.5470,2.5303,0.4501,4.380
7.0300,-3.6902,2.5960,-0.1341,4.514
7.0440,-4.1148,3.0472,-0.9326,5.205
7.0570,-4.8183,3.6166,-1.2709,6.157
7.0590,-6.2140,4.3781,-0.1693,7.603
7.0930,-9.2675,6.2490,0.8546,11.210
7.0950,-12.9034,8.4311,-1.2453,15.464
7.0980,-13.7961,8.1872,-3.3851,16.396
7.0990,-13.1145,6.1649,-2.6781,14.737
7.1010,-12.9225,4.7756,-1.4111,13.849
7.1030,-12.0153,4.7452,-0.7496,12.940
7.1130,-7.1330,5.5951,0.3841,9.074
7.1250,2.2383,6.9937,-0.1051,7.344
7.1280,10.2764,9.0468,-1.4596,13.769
7.1380,10.9349,10.7692,-2.2091,15.506
7.1520,6.2618,10.0400,-2.8125,12.162
7.1550,2.8383,9.4986,-2.7163,10.279
7.1660,4.3013,9.9386,-0.9761,10.873
7.1680,8.3827,9.4345,0.7060,12.640
7.1780,0.4454,6.9516,0.9861,7.035
7.2000,-15.3164,2.4240,2.4101,15.693
7.2030,-6.8461,2.5843,2.0116,7.589
7.2050,-1.3050,4.1614,0.9296,4.459
7.2340,-7.9752,2.7641,-0.2423,8.444
7.2360,-13.2247,1.5281,-1.5830,13.407
7.2370,-15.7882,0.7188,-0.2773,15.807
7.2390,-15.8303,-0.1618,-0.3859,15.836
7.2430,-14.1863,-0.7672,-0.4705,14.215
7.2540,-12.8745,-1.0220,-0.0238,12.915
7.2630,-12.1715,-1.1001,-0.3977,12.228
7.2690,-10.9109,-1.0374,-1.2512,11.031
7.2780,-9.9044,-0.6668,-1.3384,10.017
7.2890,-8.7276,-0.6216,-1.5936,8.894
7.2930,-7.2134,-0.6801,-1.6712,7.436
7.3100,-6.4318,-0.8984,-1.5053,6.666
7.3130,-6.6128,-1.2804,-1.4053,6.881
7.3430,-7.9635,-1.4939,-1.3524,8.215
7.3450,-9.2101,-1.3670,-1.5254,9.435
7.3470,-8.7465,-1.0171,-1.8731,9.002
7.3490,-7.2560,-0.4624,-1.8786,7.509
7.3540,-5.7173,0.0954,-1.9540,6.043
7.3640,-4.1599,0.7548,-2.1915,4.762
7.3680,-2.9007,1.3313,-2.2682,3.915
7.3780,-2.1945,1.6727,-2.3400,3.618
7.3880,-1.8072,1.9977,-2.4338,3.630
7.3930,-1.1694,2.4349,-2.4904,3.674
7.4030,0.1788,2.9378,-2.3499,3.766
7.4130,1.6106,3.3880,-2.1616,4.330
7.4320,2.2918,3.7319,-2.2846,4.940
7.4350,2.2319,4.0152,-2.6296,5.293
7.4380,1.9866,4.2209,-3.0558,5.577
7.4430,1.8509,4.3682,-3.3935,5.833
7.4740,2.1909,4.4494,-3.0244,5.809
7.4750,2.8313,4.3650,-2.4744,5.761
7.4760,3.3628,4.3292,-2.6281,6.079
7.4780,3.8499,4.4668,-2.8024,6.529
7.4910,4.6803,4.6280,-2.5432,7.056
7.4950,6.1038,4.6958,-2.2056,8.011
7.5050,7.9864,4.7180,-1.9057,9.470
7.5080,9.8704,4.6146,-1.2336,10.965
7.5190,11.0230,4.1094,-0.5012,11.775
7.5280,11.8538,3.5548,-0.4816,12.385
7.5350,14.5051,3.1176,-0.1552,14.837
7.5430,19.6643,2.3422,-0.3003,19.806
7.5530,24.8582,1.2844,-1.5386,24.939
7.5600,26.3596,0.2205,-2.1639,26.449
7.5770,21.4574,-0.9160,-0.8373,21.493
7.5790,15.9689,-2.1376,0.6708,16.125
7.6230,12.0710,-3.4269,1.9225,12.694
7.6240,10.3870,-4.3434,2.8883,11.623
7.6260,11.9063,-4.2767,2.9506,12.991
7.6270,15.3773,-3.4920,2.2431,15.928
7.6290,18.1013,-2.7666,1.7921,18.399
7.6300,17.4906,-1.7098,1.8657,17.673
7.6340,0.5233,12.5586,-2.5265,12.821
7.6450,7.6421,6.5585,-15.9406,18.855
7.6540,13.6299,-6.8721,-1.0215,15.298
7.6580,5.9320,-1.1638,6.6455,8.984
7.6690,-1.3161,1.6027,-4.0866,4.583
7.6780,-12.0417,-0.7536,16.6995,20.602
7.6830,-6.1073,1.0256,12.0957,13.589
7.6930,15.9714,1.2749,15.2826,22.142
7.7050,35.5438,4.5865,10.1919,37.260
7.7080,25.9112,1.8243,3.1472,26.165
7.7510,0.6218,-0.3990,0.4195,0.850
7.7520,-7.3300,-1.8939,0.7770,7.611
7.7540,3.1287,-0.3246,1.0948,3.331
7.7560,7.2494,0.5725,0.6409,7.300
7.7570,1.3045,0.1422,1.0943,1.709
7.7580,-1.9200,-0.1655,0.8426,2.103
7.7700,0.0646,0.2993,-0.2409,0.390
7.7780,0.4733,0.3970,-1.1297,1.288
7.7860,0.0607,0.1629,-0.9183,0.935
7.7940,0.4842,0.1389,-0.3254,0.600
7.8040,0.1615,0.1205,-0.3173,0.376
7.8080,-0.0872,0.1316,-0.6060,0.626
7.8390,0.0689,0.1323,-0.4974,0.519
7.8400,-0.0488,0.1208,-0.3738,0.396
7.8410,-0.1549,0.1032,-0.3632,0.408
7.8480,-0.0854,0.1019,-0.3553,0.379
7.8830,-0.0121,0.1081,-0.2892,0.309
7.8840,0.1444,0.0601,-0.2096,0.262
7.8850,0.1452,0.0202,-0.0143,0.147
7.8870,0.1077,-0.0246,0.2526,0.276
7.8880,-0.2125,0.0205,0.3444,0.405
7.8940,-0.3364,0.0513,0.2306,0.411
7.9000,-0.4561,0.1017,0.0254,0.468
7.9080,-0.5041,0.1012,-0.1064,0.525
7.9190,-0.2098,0.0456,-0.0822,0.230
7.9230,0.1502,0.0049,-0.1899,0.242
7.9380,-0.1476,-0.0356,-0.3445,0.376
7.9430,-0.1656,-0.0221,-0.2598,0.309
7.9500,0.0059,-0.0108,-0.0125,0.018
7.9580,-0.1668,0.0026,0.0259,0.169
7.9870,-0.4253,0.1067,-0.1104,0.452
7.9880,-0.7216,0.2236,-0.3111,0.817
7.9890,-0.6182,0.2412,-0.3688,0.759
7.9940,-0.4702,0.3151,-0.2612,0.623
8.0410,-0.6422,0.2318,0.0650,0.686
8.0420,-0.2513,0.0703,0.3708,0.453
8.0440,0.1061,0.0250,0.5008,0.513
8.0460,-0.1920,-0.0266,0.5048,0.541
8.0490,-0.2135,0.0656,0.4692,0.520
8.0520,-0.2333,0.2788,0.1153,0.381
8.0550,-0.6632,0.4163,-0.1293,0.794
8.0660,-0.5510,0.2498,-0.3236,0.686
8.0700,-0.2558,0.2842,-0.3334,0.507
8.0730,-0.5458,0.5800,-0.3756,0.881
8.0840,-0.9677,0.7558,-0.3609,1.280
8.0930,-1.3304,0.8645,0.0638,1.588
8.1090,-1.6953,1.1524,1.2328,2.392
8.1110,-1.8511,1.9109,1.4565,3.033
8.1550,-1.7165,2.0892,0.3987,2.733
8.1560,-1.7557,2.4256,-0.3587,3.016
8.1570,-2.0985,2.4315,-0.2093,3.219
8.1590,-2.3329,2.6621,-0.7696,3.622
8.1600,-2.7016,2.9100,-0.5255,4.005
8.1610,-3.2745,3.0436,-0.4468,4.493
8.1690,-3.7249,2.9373,-0.1766,4.747
8.1730,-4.0054,2.9993,0.2076,5.008
8.1860,-4.1489,3.2266,0.3378,5.267
8.1930,-4.3195,3.2757,0.5603,5.450
8.2030,-4.8031,3.2811,0.5491,5.843
8.2090,-5.4035,3.3626,0.2210,6.368
8.2190,-6.1496,3.6076,0.0555,7.130
8.2230,-7.7257,3.9684,0.2137,8.688
8.2440,-10.3323,4.5812,0.7548,11.328
8.2460,-13.5099,6.5508,0.0575,15.014
8.2990,-15.6710,8.5993,-2.3571,18.030
8.3010,-15.0838,7.1234,-2.4124,16.855
8.3020,-12.4895,4.3453,-0.5831,13.237
8.3050,-8.8579,4.2883,-0.9557,9.888
8.3540,-0.2587,6.6985,-2.4266,7.129
8.3560,7.7428,8.9735,-1.2046,11.913
8.3570,7.8918,9.1678,-2.1866,12.293
8.3610,5.2001,9.3897,-4.7319,11.730
8.3620,4.1473,10.2244,-3.7523,11.654
8.3640,5.2151,10.0300,-3.3418,11.788
8.3660,9.2649,9.7799,-2.8300,13.766
8.3680,9.8165,9.1376,-1.0272,13.450
8.3710,-1.4970,7.2330,-3.4053,8.133
8.3750,-6.8391,0.0316,4.8482,8.383
8.3760,6.2313,4.1051,2.9509,8.024
8.3780,1.7192,5.0019,0.0395,5.289
8.3840,-15.1002,1.2070,1.5467,15.227
8.3900,-23.6867,0.1993,1.3300,23.725
8.4000,-22.0139,-0.3317,1.2220,22.050
8.4240,-17.6441,-0.6824,1.3814,17.711
8.4240,-15.5936,-0.8295,1.0629,15.652
8.4250,-15.0066,-0.6999,0.0375,15.023
8.4530,-13.3643,-0.0713,-1.3999,13.438
8.4540,-11.3530,0.5959,-2.3233,11.604
8.4540,-9.7316,0.7109,-2.5854,10.094
8.4580,-8.3862,0.2385,-2.2776,8.693
8.4650,-8.0650,-0.4977,-1.7220,8.262
8.4750,-8.7599,-1.0796,-1.7351,8.995
8.4840,-9.0547,-1.1378,-2.0945,9.363
8.4890,-8.3071,-0.7031,-2.5187,8.709
8.5000,-6.2490,-0.1865,-2.8622,6.876
8.5090,-4.4574,0.2623,-2.8412,5.292
8.5140,-3.5472,0.4927,-2.7074,4.489
8.5240,-3.1759,0.6367,-2.4454,4.059
8.5440,-2.9630,0.8208,-2.1579,3.756
8.5450,-2.5569,1.1729,-1.9029,3.396
8.5480,-1.7324,1.7221,-1.7936,3.031
8.5980,-0.9066,2.2968,-1.8699,3.097
8.5990,-0.5768,2.8166,-1.9900,3.497
8.6000,-0.4741,3.2567,-2.1935,3.955
8.6010,-0.3378,3.5505,-2.2968,4.242
8.6020,-0.2932,3.7987,-2.3499,4.476
8.6020,-0.1069,4.1354,-2.4257,4.795
8.6100,0.4409,4.4875,-2.1540,4.997
8.6150,1.2430,4.8238,-1.5620,5.221
8.6240,2.3159,5.3577,-1.0411,5.929
8.6440,3.6231,6.0344,-1.0681,7.119
8.6460,5.2331,6.7018,-1.2474,8.594
8.6490,6.5697,6.9587,-1.1811,9.643
8.6540,7.2887,6.8016,-1.2455,10.047
8.6990,8.2971,6.6693,-1.4640,10.745
8.7040,10.6917,6.4412,-1.5458,12.577
8.7050,13.6868,5.6070,-1.4870,14.865
8.7060,15.2385,4.2913,-1.3720,15.891
8.7070,15.4886,2.8136,-0.8252,15.764
8.7080,15.8466,1.1457,0.2811,15.890
8.7140,16.5002,-0.5599,1.4794,16.576
8.7240,17.6774,-1.5596,1.9401,17.852
8.7290,19.2642,-1.6539,1.9054,19.429
8.7390,19.8095,-1.5580,1.9170,19.963
8.7500,19.0168,-1.4694,1.4177,19.126
8.7550,18.0470,-1.4008,0.9905,18.128
8.7670,17.4902,-1.7120,0.6837,17.587
8.7740,17.3261,-2.1742,0.5045,17.469
8.7790,17.4699,-2.5789,0.6587,17.671
8.7930,12.6308,0.5054,0.9862,12.679
8.7990,-5.7424,14.3094,-6.1475,16.599
8.8130,13.5412,-1.4028,-12.6819,18.605
8.8150,12.5108,-3.5033,3.2631,13.396
8.8240,5.4644,2.1464,-1.9000,6.171
8.8280,-3.2311,-1.2376,1.9030,3.949
8.8390,-11.9900,0.7543,14.0440,18.481
8.8520,-2.2213,0.1677,12.7038,12.898
8.8550,17.9665,2.7014,7.2314,19.555
8.8660,27.7822,2.8594,5.0981,28.390
8.8740,20.9384,1.7701,3.6839,21.334
8.8780,3.7809,-0.3438,1.0381,3.936
8.8890,-4.6943,-0.8690,-0.3880,4.790
8.9060,6.3960,0.6232,0.1929,6.429
8.9070,11.9727,1.0269,1.7062,12.137
8.9140,4.7043,0.4398,0.8815,4.806
8.9570,-1.3567,0.2336,-1.2080,1.832
8.9580,-0.8428,0.2658,-1.4755,1.720
8.9590,2.0835,0.3039,-0.3651,2.137
8.9600,1.2235,0.0843,0.3777,1.283
8.9610,-0.1774,0.0275,0.2662,0.321
8.9640,0.3352,0.0796,0.1188,0.364
8.9750,0.1871,0.1010,0.3154,0.380
8.9790,-0.3524,0.0499,0.3978,0.534
8.9900,-0.0783,0.0556,0.4558,0.466
9.0010,0.0182,0.0330,0.4039,0.406
9.0050,0.0259,0.0539,0.1281,0.141
9.0140,-0.0505,0.0974,-0.2001,0.228
9.0190,-0.1644,0.0692,-0.2939,0.344
9.0280,0.2161,0.0322,-0.0704,0.230
9.0440,0.4120,0.0540,0.0290,0.417
9.0450,-0.2250,0.0768,-0.1970,0.309
9.0920,-0.8447,0.0728,-0.4797,0.974
9.0940,-0.8366,0.0958,-0.6456,1.061
9.0950,-0.6455,0.1341,-0.5681,0.870
9.0960,-0.4563,0.0862,-0.1170,0.479
9.0960,-0.3993,0.0363,0.1261,0.420
9.0980,-0.6238,0.0239,0.2372,0.668
9.1050,-0.9674,-0.1528,0.2365,1.008
9.1380,-0.9848,0.0447,0.4079,1.067
9.1400,0.8893,0.0853,0.1704,0.910
9.1410,-0.2900,0.0815,0.2260,0.377
9.1430,-1.1625,-0.0729,-0.2009,1.182
9.1440,-0.4328,0.2746,-0.1206,0.527
9.1570,0.0872,0.0740,0.2667,0.290
9.1640,-0.1176,0.0317,0.3893,0.408
9.1950,-0.5208,0.2531,0.2832,0.645
9.1960,-0.4795,0.2298,0.0988,0.541
9.1970,-0.2274,0.1444,0.0296,0.271
9.1980,0.1014,0.1224,-0.0823,0.179
9.2040,-0.0395,0.1453,-0.3400,0.372
9.2150,-0.4245,0.1436,-0.2284,0.503
9.2190,-0.4933,0.1286,-0.2336,0.561
9.2290,-0.2406,0.4218,-0.2184,0.532
9.2390,-0.9611,0.6315,-0.1200,1.156
9.2440,-1.6359,0.8023,0.1303,1.827
9.2550,-1.1371,0.9168,0.1734,1.471
9.2640,-0.7653,1.2888,0.3506,1.539
9.2710,-1.8277,1.8844,1.3837,2.967
9.2790,-2.7473,2.3280,2.1898,4.215
9.2890,-2.2107,2.4022,-0.1813,3.270
9.2940,-2.2805,2.7708,-0.9394,3.710
9.3110,-1.9850,2.9835,-1.6873,3.961
9.3140,-3.1660,4.0307,-0.8004,5.188
9.3540,-5.2158,4.0304,0.0980,6.592
9.3550,-4.9893,3.4249,-0.3751,6.063
9.3570,-4.3249,3.4810,0.1044,5.553
9.3580,-4.2634,3.5267,0.5969,5.565
9.3590,-4.8161,3.2368,0.7867,5.856
9.3650,-5.4710,2.9774,0.6845,6.266
9.3730,-6.1148,3.1086,0.2380,6.864
9.3790,-7.1715,3.3892,-0.3878,7.941
9.3890,-8.4782,3.6688,-0.8864,9.280
9.3940,-9.8565,4.2000,-0.4873,10.725
9.4040,-12.4556,5.5740,0.6841,13.663
9.4090,-16.7865,7.8167,-0.4810,18.523
9.4200,-18.6033,7.7425,-1.1644,20.184
9.4290,-17.3092,4.8851,1.2359,18.028
9.4340,-14.1513,3.0349,3.3775,14.862
9.4440,-6.1241,4.6958,0.9074,7.770
9.4590,7.3543,8.0591,-3.4414,11.440
9.4610,17.3087,10.3202,-5.5747,20.909
9.4860,12.8017,10.5023,-4.1068,17.060
9.4880,5.8318,10.0363,-4.1294,12.320
9.4890,7.4097,12.8368,-6.5753,16.215
9.4940,10.2478,14.2871,-5.3146,18.368
9.5040,8.3710,12.0541,-3.0387,14.987
9.5090,-14.4117,7.8824,-11.7997,20.225
9.5200,-24.2169,2.0774,-0.7180,24.316
9.5290,14.8592,-3.3203,17.7927,23.418
9.5340,28.0542,4.6622,7.9939,29.541
9.5460,3.4150,3.0574,1.0042,4.692
9.5540,-22.8321,-0.9302,1.0740,22.876
9.5600,-27.3105,0.3564,0.2375,27.314
9.5700,-21.5547,1.9357,-2.6125,21.799
9.5800,-16.8873,1.3968,-3.8337,17.373
9.5960,-14.4639,0.5503,-2.9370,14.769
9.5990,-12.1909,-0.0762,-2.0860,12.368
9.6460,-9.4148,-0.6137,-1.6374,9.576
9.6480,-7.5771,-1.1696,-1.1991,7.760
9.6490,-7.2736,-1.6366,-1.5163,7.608
9.6510,-7.8889,-1.7532,-2.5745,8.482
9.6520,-9.1677,-1.7473,-3.2265,9.875
9.6540,-10.6507,-1.8284,-2.8731,11.182
9.6550,-11.0889,-1.9608,-2.4998,11.535
9.6610,-9.8442,-1.9511,-2.0307,10.239
9.6690,-8.4948,-1.7569,-1.2373,8.762
9.6800,-7.2755,-1.3748,-1.0745,7.482
9.6850,-5.9943,-0.5365,-1.4263,6.185
9.6950,-4.7441,0.4781,-1.7087,5.065
9.7050,-3.4091,1.3970,-1.9836,4.184
9.7100,-1.7181,2.2306,-2.2445,3.601
9.7310,0.2376,2.9419,-2.2175,3.692
9.7340,2.0792,3.4009,-1.7600,4.357
9.7390,3.2412,3.6463,-1.5792,5.128
9.7440,3.2458,3.8528,-1.8137,5.354
9.7930,2.4717,3.9444,-1.9115,5.032
9.7950,2.0532,3.9750,-1.8984,4.860
9.7970,1.8473,3.9854,-2.0237,4.836
9.8000,1.5205,4.1145,-1.9785,4.812
9.8010,1.8817,4.2570,-1.4443,4.873
9.8030,2.7181,4.3465,-1.2325,5.273
9.8050,2.9929,4.5616,-1.2090,5.588
9.8110,2.7452,4.8982,-1.5303,5.820
9.8200,3.1089,5.5749,-2.6023,6.893
9.8250,5.5072,6.5632,-2.5165,8.930
9.8350,10.3252,6.7965,-1.5138,12.454
9.8450,15.4986,5.9365,-0.4286,16.602
9.8510,20.1316,4.7556,0.9553,20.708
9.8600,23.4794,3.4203,2.3169,23.840
9.8710,24.3207,2.1786,2.4558,24.541
9.8740,22.2870,1.2459,2.2338,22.433
9.9010,19.2382,0.3976,1.6806,19.316
9.9050,17.0590,-0.3907,1.2416,17.109
9.9070,16.3137,-1.0389,1.1243,16.385
9.9140,16.1307,-1.6722,1.0376,16.250
9.9570,15.5452,-2.3930,1.2366,15.777
9.9600,14.4789,-3.2062,1.8425,14.944
9.9620,13.6795,-3.8999,2.7734,14.492
9.9810,9.1444,1.1525,3.0396,9.705
9.9830,3.8472,8.5847,-6.3217,11.334
9.9850,15.3965,-2.5621,-4.2917,16.188
9.9890,5.4656,5.2047,2.9665,8.109
9.9940,13.8477,-1.8715,-2.4398,14.185
9.9960,3.1547,1.0529,-1.5964,3.689
9.9970,-6.2948,0.8271,14.4252,15.761
9.9990,-5.6002,0.6871,9.9467,11.436
10.0110,6.8636,1.6915,12.2343,14.130
10.0300,19.4767,2.1279,7.0070,20.808
10.0320,25.4152,2.4198,4.8694,25.990
10.0900,13.8128,0.7004,1.7987,13.947
10.0920,-1.0923,-0.8972,1.2747,1.903
10.0940,2.0741,-0.4647,0.5180,2.188
10.0960,9.6152,0.5717,0.7451,9.661
10.0970,4.8415,0.4393,1.3406,5.043
10.0990,-1.8679,0.0719,0.4733,1.928
10.1000,-0.9754,0.3528,-1.1336,1.537
10.1010,0.6992,0.5219,-1.6165,1.837
10.1030,0.0205,0.1593,-0.3739,0.407
10.1100,0.2793,0.0847,0.4463,0.533
10.1190,0.0749,0.1679,0.0110,0.184
10.1240,-0.4232,0.1815,-0.5177,0.693
10.1350,-0.1781,0.1685,-0.5438,0.596
10.1390,-0.3015,0.1993,-0.4516,0.578
10.1720,-0.5847,0.2160,-0.2507,0.672
10.1790,-0.0995,0.1816,0.0063,0.207
10.1800,0.1444,0.1872,0.0919,0.254
10.1810,-0.0142,0.2473,-0.1619,0.296
10.2280,0.1151,0.2059,-0.0163,0.236
10.2300,0.2870,0.1128,0.5533,0.633
10.2310,-0.1053,0.0765,0.9650,0.974
10.2320,-0.4743,0.0206,0.8361,0.961
10.2340,-0.4378,0.1586,0.2280,0.518
10.2350,0.0200,0.2002,-0.3521,0.405
10.2360,-0.2462,0.2415,-0.4969,0.605
10.2400,-0.4648,0.1651,-0.5354,0.728
10.2520,-0.6156,0.1015,-0.4701,0.781
10.2600,-0.6397,0.1876,-0.2030,0.697
10.2650,-0.4362,0.0351,0.1643,0.467
10.2750,-0.4119,-0.0237,0.5076,0.654
10.3010,-0.3751,-0.2464,0.5578,0.716
10.3020,0.0867,-0.1130,0.3827,0.408
10.3070,-0.0767,-0.0736,0.1550,0.188
10.3090,-0.3768,0.0456,-0.1642,0.414
10.3140,-0.6772,0.1646,-0.3618,0.785
10.3790,-0.4750,0.1389,-0.4335,0.658
10.3820,-0.1541,0.1274,-0.2550,0.324
10.3850,-0.2270,0.2213,-0.1665,0.358
10.3860,-0.5493,0.3192,-0.1773,0.660
10.3880,-0.7757,0.4275,-0.2527,0.921
10.3900,-0.6132,0.6033,-0.2799,0.905
10.3920,-0.5050,0.7255,-0.3042,0.935
10.3940,-0.8937,0.8464,-0.0818,1.234
10.3950,-1.0514,0.8403,0.0163,1.346
10.4040,-1.0884,1.2360,0.0373,1.647
10.4130,-1.7168,1.7258,0.7540,2.548
10.4160,-2.2744,1.8592,0.8122,3.048
10.4250,-2.4783,2.6222,-0.2486,3.617
10.4490,-3.0466,2.9524,-0.2189,4.248
10.4510,-3.3411,2.8518,0.0349,4.393
10.4540,-3.3958,3.2218,-0.4213,4.700
10.4600,-3.7028,3.9263,-0.7447,5.448
10.4660,-4.2746,3.7971,-0.0191,5.718
10.5150,-4.4833,3.3777,0.5652,5.642
10.5170,-4.6957,3.3671,0.7868,5.832
10.5180,-5.4207,3.5492,0.7744,6.525
10.5190,-6.0349,3.4825,0.5072,6.986
10.5210,-6.4385,3.3771,-0.0309,7.270
10.5240,-6.7691,3.6137,-0.6431,7.700
10.5270,-7.6012,3.7290,-1.1359,8.542
10.5300,-8.8270,3.4311,-1.6424,9.612
10.5400,-9.6963,3.0904,-1.4771,10.284
10.5640,-10.8049,3.1981,-0.4023,11.275
10.5660,-13.5271,4.4450,0.3555,14.243
10.5680,-17.3663,6.5059,-0.4766,18.551
10.5990,-17.5458,6.5410,-0.0887,18.726
10.6010,-12.6476,5.3326,0.3010,13.729
10.6030,-2.6610,6.2554,-0.6862,6.832
10.6050,8.0917,9.4531,-4.0007,13.071
10.6070,15.1922,11.2699,-7.3163,20.282
10.6180,13.9665,12.3605,-8.0794,20.325
10.6250,4.8393,12.0369,-3.3132,13.390
10.6300,-0.0533,8.8628,-3.1852,9.418
10.6410,7.0051,8.3057,-4.8019,11.879
10.6510,13.9935,9.4946,-2.2241,17.056
10.6550,10.3151,8.6545,-1.4458,13.542
10.6660,-3.8105,1.7851,4.8012,6.384
10.6750,0.3626,1.4874,7.9872,8.133
10.6800,5.0159,7.2907,0.5431,8.866
10.6940,-10.7997,4.0593,-0.6756,11.557
10.7670,-23.6406,1.9429,0.1150,23.721
10.7690,-22.9397,2.2489,-1.0863,23.075
10.7760,-16.8547,2.2550,-2.0390,17.127
10.7780,-13.6188,1.4851,-1.6026,13.793
10.7800,-11.6965,0.6761,-1.1465,11.772
10.7830,-9.1740,0.2842,-0.5640,9.196
10.7840,-7.5864,-0.1061,-0.4118,7.598
10.7870,-7.5474,-0.6496,-0.6381,7.602
10.7880,-8.1142,-1.1090,-0.8800,8.237
10.8120,-8.5239,-1.4151,-1.3485,8.745
10.8150,-8.7754,-1.4224,-1.7065,9.052
10.8160,-8.8115,-1.6023,-1.7677,9.129
10.8190,-8.8355,-1.8561,-1.6511,9.178
10.8220,-9.3567,-2.0889,-1.2617,9.670
10.8240,-10.1152,-1.9049,-1.0681,10.348
10.8260,-10.0380,-1.3572,-1.3035,10.213
10.8340,-8.4655,-0.6184,-1.6377,8.645
10.8400,-7.0021,0.1225,-1.6759,7.201
10.8540,-5.6875,0.6737,-1.6407,5.958
10.8580,-4.4829,1.2696,-1.5336,4.905
10.8770,-3.6518,1.9152,-1.5462,4.404
10.8920,-2.8839,2.5982,-1.7606,4.262
10.9040,-1.9575,3.1871,-1.7554,4.132
10.9050,-0.8111,3.6484,-1.6851,4.100
10.9070,0.4467,4.0705,-1.7008,4.434
10.9080,1.3115,4.4369,-1.6608,4.916
10.9540,1.6139,4.7737,-1.6860,5.314
10.9560,1.6708,5.0820,-1.7627,5.633
10.9570,1.6675,5.4119,-1.8727,5.965
10.9590,1.7342,5.8051,-2.3394,6.495
10.9600,1.9955,6.2451,-2.8745,7.159
10.9610,3.1785,6.6344,-2.8860,7.902
10.9710,5.8628,6.9938,-3.1116,9.642
10.9730,9.1643,7.2227,-3.2763,12.120
10.9810,11.7252,6.9330,-2.5247,13.854
11.0050,14.4194,6.3508,-1.9799,15.880
11.0060,17.6190,5.5120,-1.4231,18.516
11.0600,19.2869,4.3101,-0.5023,19.769
11.0610,19.6201,3.1225,0.4180,19.871
11.0620,20.4593,1.9688,1.0771,20.582
11.0640,21.8095,0.9317,1.3773,21.873
11.0650,22.6695,0.2473,1.4472,22.717
11.0670,22.7767,-0.2565,1.7792,22.848
11.0680,22.1041,-0.8635,2.4790,22.259
11.0690,20.4179,-1.5394,3.0101,20.696
11.0710,18.3850,-1.9130,3.1879,18.757
11.0810,16.1879,-1.2076,3.4200,16.589
11.0960,1.1220,10.3855,0.1506,10.447
11.0980,3.9423,7.2384,-10.0538,13.001
11.1320,17.4107,-6.2940,-0.5517,18.522
11.1340,11.8107,-0.4895,4.7764,12.749
11.1360,4.8713,2.2393,-4.2874,6.865
11.1370,-8.5670,1.3345,7.3519,11.368
11.1400,-7.5086,1.3686,13.1304,15.187
11.1450,12.0139,0.1849,14.0865,18.515
11.1550,34.5905,4.4657,11.1209,36.608
11.1690,33.3117,1.8855,3.3755,33.535
11.1710,7.3717,-0.2017,1.5048,7.526
11.1800,-8.8835,-1.9906,1.6327,9.249
11.1930,-0.5700,-0.7334,1.3683,1.654
11.1950,9.6273,0.4507,2.0914,9.862
11.2100,4.7237,0.0542,2.7285,5.455
11.2360,-2.0713,-0.1370,1.8364,2.772
11.2370,-1.1761,0.3759,-0.2084,1.252
11.2380,0.3189,0.6401,-0.9134,1.160
11.2400,-0.0983,0.2678,-0.5536,0.623
11.2450,0.2617,0.1974,-0.1878,0.378
11.2550,0.1972,0.2916,-0.4846,0.599
11.2600,-0.4530,0.3216,-1.0476,1.186
11.2710,-0.2328,0.2833,-0.8164,0.895
11.2810,0.1101,0.2274,-0.3020,0.394
11.2850,-0.0214,0.1627,-0.0722,0.179
11.2950,0.1711,0.1479,-0.0871,0.242
11.3050,0.0824,0.1522,0.0261,0.175
11.3110,-0.4761,0.1514,0.0558,0.503
11.3290,-0.8142,0.1926,0.0712,0.840
11.3440,-0.9094,0.2897,0.0452,0.956
11.3440,-1.0334,0.3227,0.0026,1.083
11.3450,-0.7868,0.3081,-0.3010,0.897
11.3620,-0.3818,0.3781,-0.3360,0.634
11.3630,-0.1398,0.2404,-0.1290,0.307
11.3700,-0.0746,0.3193,-0.0417,0.331
11.3810,-0.1214,0.2792,-0.1135,0.325
11.3850,0.2201,0.1471,-0.1395,0.299
11.3950,0.0659,0.1242,0.0949,0.170
11.4050,-0.8710,0.0483,0.1870,0.892
11.4100,-0.6165,-0.1326,0.1472,0.648
11.4200,-0.2848,-0.0978,0.2252,0.376
11.4300,-0.4971,-0.0886,-0.0435,0.507
11.4360,-0.5156,0.0590,-0.2982,0.599
11.4450,-0.4174,0.3401,-0.2987,0.616
11.4630,-0.1597,0.2925,-0.2053,0.391
11.4650,-0.0133,0.1908,-0.0701,0.204
11.4750,-0.2227,0.3256,-0.0254,0.395
11.4940,-0.6028,0.3731,0.0134,0.709
11.4950,-0.5291,0.1306,-0.0715,0.550
11.4960,-0.4825,0.2592,-0.2610,0.607
11.5050,-0.9601,0.7607,-0.2523,1.251
11.5100,-1.4405,1.1180,0.1784,1.832
11.5220,-1.5503,1.5105,0.4805,2.217
11.5300,-1.8032,2.3295,0.0187,2.946
11.5350,-2.5848,2.7811,-0.1962,3.802
11.5450,-2.7414,2.7479,0.0241,3.882
11.5560,-2.4579,2.4379,0.4240,3.488
11.5610,-2.6173,2.3549,0.5149,3.558
11.5730,-3.3016,2.7653,0.1480,4.309
11.5800,-4.0240,3.2818,-0.1714,5.195
11.5850,-4.3580,3.7044,-0.2072,5.723
11.5960,-4.8046,4.1161,-0.1762,6.329
11.6120,-5.4274,4.2755,0.0884,6.910
11.6140,-5.9700,4.1957,0.5121,7.315
11.6280,-6.5412,4.2213,0.5012,7.801
11.6300,-7.4833,4.3983,-0.1536,8.682
11.6800,-8.7657,4.6192,-0.8493,9.945
11.6810,-10.2775,4.6564,-1.4181,11.372
11.6830,-11.7535,4.4622,-1.1331,12.623
11.6840,-13.0640,4.3599,0.1052,13.773
11.6850,-15.7870,5.0190,0.8157,16.586
11.6870,-19.4604,6.3048,0.1110,20.457
11.6880,-19.8189,5.4359,1.5573,20.610
11.6960,-16.3648,3.3609,2.7491,16.931
11.7010,-10.7490,4.1024,-1.3967,11.590
11.7140,0.3968,6.2802,-3.2259,7.071
11.7200,12.3787,7.3526,-3.9484,14.929
11.7260,17.0256,8.1145,-7.4720,20.287
11.7370,16.6094,10.2792,-7.5430,20.939
11.7450,13.3735,10.5683,-5.4878,17.907
11.7520,11.8557,9.8466,-4.9523,16.188
11.7690,12.5896,10.2403,-3.8928,16.689
11.7720,11.3054,9.8513,-0.4107,15.001
11.8280,1.3935,4.4788,2.7275,5.426
11.8300,-12.6366,-0.2437,7.0370,14.466
11.8320,-1.7492,6.2276,3.8331,7.519
11.8340,-4.9806,6.1920,1.1422,8.028
11.8360,-18.6969,3.2128,1.2819,19.014
11.8380,-23.1910,3.1107,-0.1134,23.399
11.8390,-17.9424,3.7107,-1.9557,18.426
11.8410,-12.4137,3.0426,-2.1263,12.957
11.8470,-9.2083,1.9332,-1.2823,9.496
11.8510,-7.0702,1.0906,-0.4549,7.168
11.8620,-6.0502,0.2659,-0.5367,6.080
11.8700,-7.0148,-0.6408,-0.4676,7.060
11.8870,-9.1621,-1.4217,-0.6939,9.298
11.8900,-10.9291,-1.7410,-1.2473,11.137
11.9480,-11.5379,-1.5220,-1.9778,11.805
11.9500,-10.7851,-0.9687,-2.5137,11.116
11.9530,-9.3386,-0.7138,-2.6517,9.734
11.9550,-7.6791,-0.6026,-2.2436,8.023
11.9570,-6.6677,-0.6568,-1.4834,6.862
11.9590,-6.2414,-0.5346,-1.0052,6.344
11.9600,-5.6578,-0.0914,-0.8874,5.728
11.9630,-4.5743,0.5050,-0.8422,4.679
11.9640,-3.4574,1.1006,-0.8272,3.721
11.9730,-2.6699,1.6632,-0.6400,3.210
11.9760,-2.0550,2.2371,-0.5638,3.090
11.9860,-1.3918,2.8446,-0.6478,3.232
11.9970,-0.8210,3.3953,-0.7398,3.571
12.0010,-0.4341,3.7909,-0.7309,3.885
12.0110,0.0399,4.0950,-0.5936,4.138
12.0340,0.6682,4.3677,-0.4383,4.440
12.0380,1.1598,4.6579,-0.6990,4.851
12.0400,1.3102,4.9560,-1.0133,5.225
12.0420,1.2260,5.0878,-0.9715,5.323
12.0510,1.4202,5.0906,-1.1260,5.404
12.0900,2.5017,5.2335,-1.5981,6.017
12.0920,4.4753,5.3165,-1.1694,7.047
12.0940,7.1595,5.1113,-0.6321,8.820
12.0950,10.8481,5.0196,-1.0426,11.999
12.0980,15.3724,4.9278,-1.5046,16.213
12.1040,18.7085,4.0215,-0.7739,19.151
12.1150,20.5662,2.4644,0.5854,20.722
12.1170,22.1710,0.9827,1.6828,22.256
12.1260,22.6989,0.2689,1.6549,22.761
12.1370,21.0316,0.1958,1.0676,21.060
12.1440,19.4195,0.5434,-0.0649,19.427
12.1670,18.9240,0.9166,-1.0630,18.976
12.1700,18.7397,0.5629,-0.9193,18.771
12.1820,19.2961,-0.6833,-0.0619,19.308
12.1850,20.0720,-2.2948,1.1557,20.236
12.1880,19.6511,-3.6766,2.1984,20.113
12.1920,18.3339,-4.4589,2.7547,19.068
12.2450,17.3826,-4.4676,2.7700,18.160
12.2470,4.3858,5.2307,1.2209,6.934
12.2530,-0.0019,8.4074,-9.1772,12.446
12.2560,11.4395,-1.9167,-8.3807,14.310
12.2580,7.6816,2.7386,-7.5167,11.091
12.2600,0.6182,1.7338,0.0944,1.843
12.2620,-9.8927,1.2974,11.4272,15.170
12.2640,-5.2183,1.1723,15.5028,16.399
12.2660,12.4654,0.7629,8.6524,15.193
12.2880,26.7280,3.3350,6.7485,27.768
12.2930,25.0858,1.0343,3.3476,25.329
12.3020,6.7604,-0.3393,2.0649,7.077
12.3100,-2.6199,-0.8363,1.7496,3.260
12.3120,2.0837,-0.1170,0.1390,2.092
12.3600,7.6986,0.7608,0.6802,7.766
12.3620,4.3881,0.4230,1.0370,4.529
12.3630,-1.5369,0.0542,-0.0070,1.538
12.3650,-1.7814,0.3038,-1.4476,2.315
12.3660,0.4716,0.4992,-1.7595,1.889
12.3670,1.0676,0.3579,-1.1395,1.602
12.3690,0.0575,0.3342,-1.3066,1.350
12.3760,-0.3511,0.3246,-1.4609,1.537
12.3800,0.0302,0.2434,-0.7215,0.762
12.3910,-0.0660,0.1511,0.2916,0.335
12.4040,-0.5278,0.1470,0.7300,0.913
12.4060,-0.3170,0.1103,0.9394,0.998
12.4160,0.1603,0.0594,1.1215,1.134
12.4260,0.1239,0.0743,1.1507,1.160
12.4420,-0.4638,0.1274,1.0075,1.116
12.4430,-0.6580,0.1536,0.7242,0.990
12.4640,-0.6761,0.2010,0.6160,0.936
12.4660,-0.6863,0.1696,0.3332,0.782
12.4670,-0.6337,0.1829,-0.3554,0.749
12.5320,-0.3021,0.3320,-0.7459,0.871
12.5330,-0.0593,0.3498,-0.8813,0.950
12.5340,-0.2541,0.3998,-0.7144,0.857
12.5350,-0.2356,0.3560,-0.3497,0.552
12.5360,-0.0801,0.1355,-0.0776,0.176
12.5370,-0.1411,0.0420,0.0411,0.153
12.5380,-0.5621,0.0683,0.0966,0.574
12.5390,-0.8546,0.0935,0.1361,0.870
12.5400,-0.8481,0.2235,-0.0104,0.877
12.5540,-0.5771,0.1357,-0.0563,0.596
12.5580,-0.9961,0.1853,0.0438,1.014
12.5660,-0.6586,0.2487,0.1634,0.723
12.5780,-0.3982,0.2751,0.3852,0.619
12.5800,-0.4866,0.3135,0.2512,0.631
12.5910,-0.5652,0.8052,0.1130,0.990
12.6110,-0.6335,0.5996,0.0979,0.878
12.6130,-0.8724,1.0452,-0.4941,1.448
12.6160,-1.2462,1.7229,-0.7398,2.251
12.6260,-1.6092,1.5981,-0.9694,2.466
12.6370,-1.8510,1.5497,-0.8633,2.564
12.6400,-1.9356,1.8111,-0.3722,2.677
12.6510,-2.0481,1.9431,0.0693,2.824
12.6570,-2.4000,1.8446,0.6875,3.104
12.6660,-2.7902,1.9966,1.1936,3.633
12.6760,-3.3499,2.4097,1.5256,4.400
12.6810,-3.9988,2.8289,1.7261,5.193
12.6970,-4.4832,3.2675,1.6179,5.779
12.7000,-4.7950,3.6587,1.3817,6.188
12.7060,-5.0854,3.7993,1.2384,6.468
12.7190,-5.4968,3.5938,0.8270,6.619
12.7250,-5.7032,3.1477,0.5619,6.538
12.7750,-6.4431,3.5335,0.8071,7.393
12.7770,-7.1704,3.8964,-0.8412,8.204
12.7780,-8.2074,4.3145,-2.1046,9.508
12.7790,-9.3329,4.4166,-2.1717,10.551
12.7810,-10.8403,4.1369,-0.8484,11.634
12.7820,-13.6410,4.6736,0.7802,14.440
12.7830,-17.7052,6.6535,-0.7057,18.927
12.7920,-19.2212,7.1082,-1.3295,20.537
12.7960,-16.8119,5.6406,0.9941,17.761
12.8060,-10.4837,5.3636,0.4295,11.784
12.8170,1.2733,7.7970,-4.3992,9.043
12.8220,16.0898,9.8282,-8.8904,20.845
12.8500,23.3844,10.6897,-6.3045,26.473
12.8530,18.5655,12.6913,-4.5624,22.947
12.8580,10.9690,14.1620,-4.4658,18.461
12.8610,5.3317,14.3456,-4.7414,16.022
12.9200,1.6583,12.3166,-3.8770,13.018
12.9220,-0.5343,8.2734,-3.2290,8.897
12.9240,-9.4592,0.2467,4.8078,10.614
12.9260,-2.3042,1.5882,9.7127,10.108
12.9280,1.0887,5.5091,3.9595,6.871
12.9290,-12.2290,2.2302,1.8761,12.571
12.9320,-19.3976,1.1122,1.6773,19.502
12.9340,-17.8486,1.9015,0.4552,17.955
12.9360,-15.1664,1.8885,-1.3388,15.342
12.9410,-12.0123,1.5002,-2.1114,12.288
12.9460,-8.1355,1.1243,-1.0691,8.282
12.9590,-4.9089,0.1410,-0.3845,4.926
12.9670,-4.3534,-1.3525,0.3429,4.572
12.9980,-6.6134,-2.8566,0.6910,7.237
12.9990,-9.6309,-3.6971,-0.3310,10.321
13.0010,-12.0009,-3.2707,-1.4449,12.522
13.0030,-13.1149,-2.0417,-1.7533,13.388
13.0060,-12.2000,-1.1553,-1.6119,12.360
13.0650,-8.9224,-0.8251,-0.7178,8.989
13.0680,-5.9303,-0.7858,0.8399,6.041
13.0700,-4.5015,-0.8820,1.5494,4.842
13.0720,-4.2666,-0.6034,1.6752,4.623
13.0740,-4.5896,0.0577,1.2553,4.759
13.0750,-4.3071,0.7087,0.8830,4.453
13.0770,-3.4732,1.3419,0.5920,3.770
13.0780,-2.3558,1.9009,0.4540,3.061
13.0830,-1.2543,2.3165,0.6452,2.712
13.0930,-0.6125,2.6019,0.8032,2.791
13.0990,-0.3266,3.0241,0.6030,3.101
13.1060,-0.2368,3.3810,0.4627,3.421
13.1170,-0.2264,3.6202,0.2713,3.637
13.1220,0.4696,4.0317,-0.1232,4.061
13.1490,1.7415,4.4833,-0.2696,4.817
13.1520,2.7997,4.7396,-0.4290,5.521
13.1620,3.5790,4.9033,-0.6574,6.106
13.1640,4.5756,5.0811,-0.6687,6.870
13.1650,5.7661,5.2327,-0.6282,7.812
13.2240,6.7732,5.1543,-0.5915,8.532
13.2260,8.5508,5.1333,-0.5139,9.986
13.2280,11.1994,4.9457,0.3671,12.248
13.2330,12.5714,4.0541,1.7202,13.320
13.2350,12.8492,3.3517,2.4366,13.501
13.2420,13.1558,3.1814,2.5318,13.770
13.2440,13.7342,2.8755,1.9080,14.161
13.2460,15.5216,2.3328,1.4204,15.760
13.2480,18.5175,1.4495,1.8972,18.671
13.2490,19.9917,0.0873,2.5931,20.159
13.2590,19.0433,-1.0352,2.7730,19.272
13.2760,18.1031,-1.3909,1.9946,18.266
13.2780,18.2062,-1.4582,0.8251,18.283
13.2960,18.4434,-1.8231,-0.0200,18.533
13.2980,18.2486,-2.6069,0.0869,18.434
13.3040,17.2955,-3.5870,1.0190,17.693
13.3060,16.2693,-3.9582,1.1801,16.785
13.3700,15.0071,-3.4929,0.3926,15.413
13.3720,-3.7770,12.0479,-3.7358,13.167
13.3740,-0.2860,9.6047,-16.6909,19.259
13.3760,12.9376,-4.1271,-1.3522,13.647
13.3780,1.7453,3.7695,5.5903,6.965
13.3790,-7.8521,1.5789,4.7524,9.313
13.3810,-10.0411,0.9213,8.7181,13.330
13.3830,3.6219,1.2038,12.0204,12.612
13.3860,18.4282,1.9497,8.1975,20.263
13.3880,23.5234,1.7301,8.1061,24.941
13.3980,16.8265,0.4404,4.5559,17.438
13.4060,3.0811,-0.3880,1.0030,3.263
13.4120,0.6710,-0.0576,-0.5176,0.849
13.4340,8.9866,0.8104,-0.1001,9.024
13.4360,8.0224,0.8505,0.6843,8.096
13.4420,0.6160,0.4130,-0.2292,0.776
13.4470,-2.1596,0.3410,-2.1025,3.033
13.4850,-1.3565,0.5440,-2.7113,3.080
13.4870,0.1194,0.3330,-1.0909,1.147
13.4880,0.9959,0.1911,0.5560,1.156
13.4890,0.1486,0.2476,0.3968,0.491
13.4910,-0.7640,0.1572,0.1406,0.793
13.4970,0.1230,0.0846,0.8043,0.818
13.5010,0.8247,0.1152,0.9620,1.272
13.5290,0.0702,0.1613,0.3063,0.353
13.5310,-0.0295,0.1503,-0.2495,0.293
13.5320,0.3591,0.1453,-0.6531,0.759
13.6050,0.1988,0.2232,-0.8534,0.904
13.6060,0.0317,0.2468,-0.5326,0.588
13.6070,0.0940,0.2763,-0.1849,0.345
13.6090,-0.2916,0.2581,-0.0413,0.392
13.6110,-0.8041,0.3350,-0.0705,0.874
13.6120,-1.0645,0.2725,0.0319,1.099
13.6140,-0.9586,0.3373,0.1936,1.035
13.6160,-0.7816,0.3143,0.2036,0.867
13.6170,-0.6079,0.3124,0.2659,0.733
13.6180,-0.4829,0.1697,0.4416,0.676
13.6220,-1.0045,0.1048,0.5632,1.156
13.6260,-0.9341,-0.1118,0.2653,0.977
13.6390,-0.5612,-0.1850,-0.0871,0.597
13.6460,-0.3351,-0.1453,-0.1551,0.397
13.6670,-0.2894,-0.1736,-0.2718,0.433
13.6690,-0.1732,-0.0693,-0.5798,0.609
13.7470,-0.2056,0.3669,-0.6519,0.776
13.7500,-1.5492,0.5624,-0.7552,1.813
13.7520,-1.2671,0.5279,-0.5789,1.490
13.7580,-0.2631,0.5685,-0.2189,0.664
13.7590,-0.1639,0.4363,0.1129,0.480
13.7610,-0.5617,0.3995,0.3794,0.787
13.7620,-0.7542,0.3706,0.4239,0.941
13.7630,-0.8530,0.5315,0.2547,1.037
13.7640,-0.9875,0.5817,0.1074,1.151
13.7650,-0.7901,0.4925,0.0586,0.933
13.7670,-0.9252,1.1445,0.1356,1.478
13.7680,-1.9756,2.0150,0.3481,2.843
13.7780,-2.7212,2.5464,0.2580,3.736
13.7790,-2.6284,3.0831,-0.4211,4.073
13.7870,-2.7976,3.7991,-1.3037,4.895
13.7990,-3.7703,4.0984,-1.3791,5.737
13.8010,-4.0470,4.1052,-0.6893,5.806
13.8180,-4.2828,4.1094,0.2183,5.939
13.8210,-4.9936,4.1208,0.4057,6.487
13.8340,-5.6320,4.1642,0.1396,7.006
13.8380,-5.9489,4.2654,0.0898,7.321
13.8670,-6.3558,4.2367,-0.0871,7.639
13.8710,-7.0185,4.1253,-0.5842,8.162
13.8720,-7.9209,4.1358,-1.1979,9.016
13.8740,-8.8904,4.3459,-1.6794,10.037
13.8840,-10.2801,4.3548,-1.7755,11.305
13.8870,-11.8080,4.1257,-1.6902,12.622
13.8920,-13.7447,4.1147,-1.1077,14.390
13.9370,-16.8371,4.8918,-0.2229,17.535
13.9390,-19.2238,5.7626,-0.5142,20.076
13.9410,-18.2116,4.3841,1.3718,18.782
13.9430,-11.8246,3.1803,1.2596,12.309
13.9450,-2.0640,4.8772,-2.0387,5.675
13.9460,7.7848,7.1354,-4.6929,11.556
13.9530,13.9787,8.2827,-4.9276,16.979
13.9620,11.2263,8.7239,-5.6665,15.305
13.9670,4.8927,9.0057,-4.7274,11.287
13.9810,3.3382,8.9307,-5.1548,10.839
14.0240,5.0691,9.2357,-6.0246,12.136
14.0260,9.3452,10.0734,-4.6194,14.496
14.0270,10.8827,8.7310,-3.4680,14.377
14.0280,0.3270,7.0251,-3.3998,7.811
14.0300,-0.4811,0.3803,6.5936,6.622
14.0320,12.5802,4.7366,4.3277,14.122
14.0370,1.0113,5.9549,-0.4403,6.056
14.0450,-20.5037,1.8612,0.0408,20.588
14.0530,-26.7091,1.3539,0.3265,26.745
14.0620,-22.3102,1.9921,-0.8062,22.413
14.0670,-16.5025,1.4502,-1.9112,16.676
14.0770,-12.0927,0.9439,-2.0058,12.294
14.0870,-9.4400,0.6229,-1.6525,9.604
14.0980,-8.4716,-0.0650,-1.5798,8.618
14.1150,-7.9095,-0.9521,-1.1623,8.051
14.1180,-6.5669,-1.3207,-0.7979,6.746
14.1240,-5.2478,-1.3099,-1.3669,5.579
14.1260,-5.5796,-1.3815,-2.1964,6.153
14.1510,-6.9806,-1.5718,-2.5116,7.583
14.1540,-8.4964,-1.7598,-2.3980,9.002
14.1550,-9.6384,-1.7788,-2.1512,10.035
14.1620,-10.0886,-1.5479,-1.8485,10.373
14.1670,-9.2834,-1.2515,-1.5627,9.497
14.1770,-7.8195,-0.8364,-1.1838,7.953
14.1870,-5.9342,-0.3368,-1.0807,6.041
14.1930,-4.1812,0.1931,-1.1188,4.333
14.2020,-3.4239,0.5719,-1.0240,3.619
14.2130,-3.1169,0.9453,-0.8231,3.359
14.2190,-2.6292,1.5625,-0.6402,3.125
14.2270,-1.9006,2.4648,-0.7430,3.200
14.2370,-0.6995,3.4195,-0.7629,3.573
14.2410,0.9285,4.1623,-0.6494,4.314
14.2520,2.6230,4.7730,-0.8368,5.510
14.2640,4.0688,5.2725,-1.0457,6.742
14.2660,4.6838,5.3075,-1.0087,7.150
14.3020,4.7056,5.0024,-0.9099,6.928
14.3030,4.0934,4.6981,-0.6683,6.267
14.3040,3.1712,4.8125,-1.2359,5.894
14.3050,3.5983,5.5009,-1.6269,6.772
14.3060,6.2825,6.1709,-1.1361,8.879
14.3170,9.5213,6.1560,-0.5941,11.354
14.3270,11.7568,5.5722,0.0922,13.011
14.3460,12.8882,4.6720,1.1582,13.758
14.3480,8.9792,7.3902,1.3078,11.703
14.3520,13.3238,5.1496,-2.2980,14.468
14.3800,20.9212,1.3595,1.1485,20.997
14.3820,25.1047,0.7056,5.4897,25.708
14.3840,23.3707,3.5912,1.8681,23.719
14.3850,28.7578,-1.7376,0.5789,28.816
14.4010,24.7013,0.2200,2.4575,24.824
14.4030,16.3788,2.7862,1.1451,16.653
14.4070,17.9555,-3.8354,1.8315,18.452
14.4180,15.0707,-3.7672,5.6340,16.525
14.4270,10.8946,1.6005,2.6620,11.329
14.4340,16.3665,-0.3262,-4.2387,16.910
14.4430,16.4600,-4.2029,0.7538,17.005
14.4540,9.6383,-0.7699,11.8454,15.291
14.4580,2.2884,2.1228,7.0202,7.683
14.4670,1.3902,4.5082,9.8355,10.908
14.5010,13.3240,2.8025,11.9984,18.148
14.5030,26.6819,1.6110,6.3874,27.483
14.5050,16.8280,0.7602,2.9297,17.098
14.5060,3.2854,-0.5607,0.9347,3.462
14.5110,-2.4248,-0.8608,0.1892,2.580
14.5330,1.9219,-0.0464,0.3624,1.956
14.5350,4.3882,0.5677,0.5590,4.460
14.5360,0.6877,0.2385,0.8897,1.149
14.5420,-2.8115,0.2278,0.3740,2.845
14.5520,-2.3241,0.3592,-0.1333,2.355
14.5600,0.9175,0.2306,0.8308,1.259
14.5670,1.7205,0.2776,0.1860,1.753
14.5770,-0.1709,0.2851,-0.8311,0.895
14.5820,0.1673,0.1886,-0.1249,0.281
14.6180,0.4648,0.0543,1.0796,1.177
14.6190,-0.0455,0.0538,1.3667,1.368
14.6200,-0.3352,0.0834,1.3670,1.410
14.6220,-0.1475,0.0994,1.1929,1.206
14.6230,-0.0080,0.1375,0.7418,0.754
14.6750,-0.0845,0.1449,0.3993,0.433
14.6760,-0.2271,0.1723,0.0771,0.295
14.6780,-0.4286,0.2417,-0.2857,0.569
14.6790,-0.4401,0.3890,-0.8564,1.038
14.6800,-0.4335,0.6157,-1.2827,1.487
14.6810,-0.5974,0.6819,-1.0074,1.355
14.6830,-0.3590,0.5991,-0.3782,0.794
14.6970,-0.4109,0.6053,-0.0005,0.732
14.6990,-0.5914,0.4163,0.3560,0.806
14.7070,-1.4386,0.1508,0.7397,1.625
14.7170,-1.0540,-0.0960,0.5406,1.188
14.7220,-0.4988,0.0772,0.1824,0.537
14.7470,-0.6901,0.1353,-0.3545,0.788
14.7490,-0.9708,0.2547,-0.6783,1.211
14.7520,-1.1968,0.3870,-0.9776,1.593
14.7590,-1.0702,0.4879,-1.0718,1.591
14.8100,-0.7835,0.6258,-0.8525,1.316
14.8110,-0.7471,0.9573,-0.4804,1.306
14.8130,-0.9354,1.1423,-0.1205,1.481
14.8140,-1.1047,1.1910,0.1431,1.631
14.8160,-1.3455,1.5736,0.1135,2.074
14.8170,-1.9053,2.2209,0.5196,2.972
14.8180,-2.0391,1.9960,0.6111,2.918
14.8260,-1.8558,1.3859,0.5052,2.371
14.8680,-1.8563,1.1156,0.5119,2.225
14.8690,-1.9042,0.9681,0.6481,2.232
14.8720,-1.9538,1.1328,0.3508,2.286
14.8730,-2.4468,1.9156,-0.1975,3.114
14.8750,-3.4027,3.0960,-0.4683,4.624
14.8770,-4.1276,3.8658,-0.6434,5.692
14.8910,-4.3592,3.8495,-0.5258,5.839
14.9410,-4.2424,3.5970,-0.1811,5.565
14.9430,-4.4021,3.4236,0.2459,5.582
14.9450,-5.1683,3.5682,0.2048,6.284
14.9460,-6.2801,4.0081,-0.2173,7.453
14.9840,-7.3642,4.6724,-0.9486,8.773
14.9850,-8.3871,5.0393,-1.9090,9.969
14.9880,-9.6670,4.7468,-2.2890,11.010
14.9900,-10.4167,4.3626,-2.1297,11.492
14.9920,-10.9797,4.1645,-1.8566,11.889
14.9940,-12.1749,4.3985,-1.2163,13.002
14.9950,-14.8830,5.7508,-0.0563,15.956
14.9980,-19.3424,8.3266,-1.0348,21.084
14.9990,-20.7252,9.0578,-0.7748,22.631
15.0010,-15.6681,8.2870,0.5220,17.732
15.0070,-5.9584,9.3829,-1.4832,11.213
15.0290,2.8610,10.5694,-3.5110,11.499
15.0300,7.3930,10.9248,-5.2217,14.187
15.0830,8.9306,11.8094,-10.4688,18.133
15.0840,9.5624,11.8133,-9.2989,17.818
15.0850,10.9360,10.3877,-8.0594,17.101
15.0860,14.0821,9.9365,-4.7196,17.869
15.0870,19.2951,9.3280,0.4920,21.437
15.0880,18.4472,5.4980,4.3739,19.740
15.0880,-1.1929,0.5889,7.5986,7.714
15.0890,-6.6585,5.4807,1.2162,8.709
15.0970,-13.1459,5.4509,-3.0013,14.544
15.1070,-22.5581,3.1978,-1.4191,22.828
15.1130,-24.0044,2.7467,-1.4409,24.204
15.1220,-18.4933,2.2653,-2.6148,18.814
15.1330,-13.7640,0.8522,-2.3407,13.988
15.1380,-11.4534,-0.3767,-0.5915,11.475
15.1470,-10.0478,-1.1916,0.7485,10.146
15.1650,-8.6664,-1.7514,0.9989,8.898
15.1670,-7.2019,-1.7839,0.7877,7.461
15.1990,-5.7994,-1.7480,0.5595,6.083
15.2010,-5.1010,-1.8033,0.1365,5.412
15.2030,-5.6083,-1.9843,-0.2822,5.956
15.2040,-7.0121,-2.2170,-0.3376,7.362
15.2080,-8.8504,-2.1337,-0.2428,9.107
15.2160,-10.3481,-1.6544,-0.2395,10.482
15.2230,-10.0833,-1.1884,-0.3054,10.158
15.2330,-8.3046,-0.7349,-0.1512,8.338
15.2380,-6.5323,-0.2932,0.1259,6.540
15.2470,-5.1588,0.0753,0.2776,5.167
15.2600,-3.8891,0.4930,0.5230,3.955
15.2620,-2.9460,1.0611,0.5126,3.173
15.2790,-2.3263,1.8253,0.5242,3.003
15.2820,-1.5504,2.6663,0.5864,3.140
15.2870,-0.5155,3.5309,0.4693,3.599
15.3130,0.4772,4.3745,-0.0145,4.400
15.3190,1.4493,5.1626,-0.4917,5.385
15.3210,2.6492,5.7439,-0.5284,6.347
15.3230,4.4361,6.0111,-0.8039,7.514
15.3690,6.1053,6.0202,-0.8064,8.612
15.3720,7.0888,5.8302,-0.6529,9.202
15.3740,7.6789,5.6009,-0.7269,9.532
15.3750,8.9914,5.4564,-1.0519,10.570
15.3770,11.5693,5.3416,-1.1352,12.793
15.3820,14.5104,4.8579,-0.8768,15.327
15.3840,16.7333,3.9527,-0.4415,17.199
15.3890,17.9206,2.9318,0.0479,18.159
15.3980,18.2715,2.1023,0.5591,18.401
15.4020,18.7979,1.6445,0.7348,18.884
15.4180,21.0090,1.5798,0.8891,21.087
15.4240,22.3906,2.4496,1.1918,22.556
15.4300,20.3793,3.1853,0.0640,20.627
15.4780,21.8931,1.6222,-0.1612,21.954
15.4790,16.4776,6.3482,0.8795,17.680
15.4800,19.5802,1.1567,-0.2846,19.616
15.4800,17.6923,-1.7795,3.7961,18.182
15.4810,19.2232,-1.5892,1.8770,19.380
15.4820,17.2998,-0.2991,0.8937,17.325
15.4870,13.1959,-0.8608,8.2877,15.606
15.4970,3.6969,1.1349,4.6286,6.032
15.5020,-1.5374,3.2985,4.2621,5.604
15.5180,0.8188,2.7187,8.3878,8.855
15.5210,10.5789,1.1071,6.7514,12.598
15.5270,15.3256,0.9070,4.5917,16.024
15.5430,15.1684,1.1137,4.2895,15.803
15.5500,14.9413,0.1864,3.6648,15.385
15.6020,8.4619,0.1197,1.8953,8.672
15.6040,1.7094,-0.0879,1.4041,2.214
15.6050,1.4358,0.0285,1.2742,1.920
15.6070,1.8514,0.3873,0.6866,2.012
15.6080,0.3882,0.5204,-0.5469,0.849
15.6090,-0.4768,0.5212,-1.0490,1.265
15.6100,0.4664,0.4208,-0.3307,0.710
15.6140,0.9821,0.3998,-0.0488,1.062
15.6230,0.4429,0.3423,-0.3320,0.651
15.6270,0.4141,0.3142,-0.5629,0.766
15.6380,0.7685,0.3029,-0.2876,0.875
15.6470,0.5094,0.2635,-0.1002,0.582
15.6650,-0.1614,0.2123,0.0111,0.267
15.6660,-0.3047,0.2311,0.2973,0.484
15.7270,-0.3621,0.1969,0.6173,0.742
15.7290,-0.5193,0.1588,0.8402,1.000
15.7300,-0.6077,0.1278,0.9230,1.112
15.7310,-0.3877,0.1012,0.7100,0.815
15.7330,-0.5317,0.1438,0.1332,0.567
15.7340,-0.7457,0.3544,-0.4879,0.959
15.7350,0.0897,0.4430,-0.9539,1.056
15.7360,-0.1002,0.5675,-0.8830,1.054
15.7400,-1.1133,0.3637,-0.5972,1.315
15.7430,-0.4550,0.0636,-0.1512,0.484
15.7720,-0.4885,0.1178,0.0632,0.506
15.7730,-0.4638,0.0745,-0.0971,0.480
15.7740,-0.6555,0.2386,0.0202,0.698
15.7790,-1.2507,0.2423,-0.1856,1.287
15.7870,-1.0494,0.2452,-0.3828,1.144
15.7920,-0.6140,0.2798,-0.4281,0.799
15.8020,-0.5769,0.3698,-0.3710,0.779
15.8310,-0.7155,0.3279,-0.1593,0.803
15.8330,-0.5588,0.4230,-0.1205,0.711
15.8340,-0.2613,0.5365,0.0001,0.597
15.8380,-0.5042,0.6282,0.1612,0.821
15.8430,-0.6965,0.6656,0.2348,0.992
15.8530,-0.6963,0.7712,-0.0527,1.040
15.9310,-1.3314,1.4707,-0.1718,1.991
15.9320,-2.1343,1.8184,-0.0610,2.805
15.9360,-2.2057,1.7991,-0.3321,2.866
15.9380,-2.0940,1.9917,-0.1381,2.893
15.9390,-2.1606,2.3547,-0.0550,3.196
15.9410,-2.6021,2.8213,-0.4239,3.861
15.9420,-2.9920,3.2270,-0.6258,4.445
15.9440,-3.4876,3.6269,-0.4417,5.051
15.9460,-4.2001,3.9237,-0.1565,5.750
15.9470,-4.7155,3.7826,0.3085,6.053
15.9490,-4.9272,3.6226,0.7496,6.161
15.9550,-5.3119,3.8007,0.8975,6.593
15.9630,-5.8672,4.1180,0.6269,7.196
15.9680,-6.7755,4.3381,0.2692,8.050
15.9850,-7.6902,4.5043,-0.6102,8.933
16.0680,-9.1266,4.7243,-1.5379,10.391
16.0690,-10.9346,5.4067,-2.0019,12.361
16.0730,-12.6544,5.6072,-2.3860,14.045
16.0750,-14.1820,5.3344,-1.9593,15.278
16.0790,-15.7938,4.7932,-0.7845,16.524
16.0810,-17.3909,4.4697,2.0366,18.071
16.0830,-19.8972,5.9207,3.5802,21.066
16.0850,-19.7027,8.1484,2.5408,21.472
16.0880,-11.7110,9.2248,-0.4475,14.915
16.0900,0.8510,8.9149,-4.8182,10.169
16.0910,14.4556,8.7304,-6.6667,18.156
16.0940,17.4935,10.3245,-7.8937,21.793
16.0970,12.1672,11.6111,-7.1212,18.264
16.0990,8.5085,11.8691,-7.0268,16.206
16.1050,6.6919,11.0844,-5.4934,14.065
16.1090,7.1053,9.7879,-3.4773,12.585
16.1310,0.5877,6.7870,-3.6168,7.713
16.1340,-14.1537,0.1448,3.4405,14.567
16.1350,-0.6516,-4.5020,14.2956,15.002
16.1430,14.9858,4.9223,5.5065,16.707
16.2150,-4.5126,3.3155,-1.3324,5.756
16.2170,-26.7977,-0.0691,-0.6855,26.807
16.2190,-27.2805,2.6529,-1.3886,27.444
16.2220,-15.1493,4.4672,-4.3270,16.376
16.2230,-4.5582,3.4108,-5.0458,7.607
16.2260,-0.1474,1.4562,-2.5757,2.963
16.2270,-2.6714,-0.7190,-0.3458,2.788
16.2290,-8.1353,-2.9817,0.1230,8.665
16.2310,-12.4330,-4.2001,-0.5506,13.135
16.2330,-14.4497,-3.6480,-1.8473,15.017
16.2360,-15.2091,-1.7576,-3.4916,15.703
16.2430,-14.9828,0.1467,-4.1704,15.553
16.2680,-12.1139,0.8078,-3.1375,12.540
16.2710,-7.1641,0.8691,-1.0259,7.289
16.2830,-3.6256,0.6453,0.8719,3.784
16.2840,-2.8644,0.5033,1.5645,3.302
16.2860,-3.5691,0.8490,1.1025,3.831
16.3050,-3.9752,1.7192,0.3511,4.345
16.3070,-3.4186,2.5397,0.4354,4.281
16.3080,-1.9238,3.1225,0.4879,3.700
16.3200,-0.1069,3.6971,0.3453,3.715
16.3280,1.3925,4.2956,0.1635,4.519
16.3450,2.4703,4.8700,-0.2341,5.466
16.3470,2.7586,5.0668,-0.4105,5.784
16.3810,2.5890,4.9425,-0.4128,5.595
16.3820,2.4129,4.8228,-0.1387,5.394
16.3840,2.6574,4.8466,0.0184,5.527
16.3860,3.6828,4.9407,-0.0114,6.162
16.3940,5.2561,4.8605,-0.3796,7.169
16.3960,6.4709,4.5049,-0.7520,7.920
16.4040,7.2975,3.9642,-0.6940,8.334
16.4080,8.1922,3.3711,-0.3535,8.866
16.4190,9.2743,3.0720,0.0856,9.770
16.4280,10.6542,2.9795,0.3243,11.068
16.4360,12.5413,2.9075,0.1713,12.875
16.4430,14.7989,2.7838,-0.1711,15.059
16.4530,17.0511,2.4905,-0.4788,17.239
16.4590,19.1120,1.8035,0.0201,19.197
16.4680,20.8853,0.6813,1.3628,20.941
16.4740,20.9343,-0.3762,1.8668,21.021
16.4830,18.8843,-0.5589,1.3636,18.942
16.4990,16.9178,-0.3721,0.6858,16.936
16.5000,15.5531,-0.1837,0.2038,15.556
16.5080,9.9252,3.7409,-0.8556,10.641
16.5610,9.5760,5.4588,-4.4567,11.890
16.5620,18.8127,-0.2151,-4.5504,19.356
16.5670,20.5336,-4.0598,4.9947,21.519
16.5730,15.0077,-0.0974,2.1194,15.157
16.5780,15.5564,-2.0121,-6.4516,16.961
16.5830,14.0114,-1.7217,7.8611,16.158
16.5840,5.1071,1.7434,5.6606,7.821
16.5850,0.9186,3.6691,8.2674,9.092
16.5930,3.0468,3.3529,8.9736,10.052
16.5940,9.6517,1.3824,5.9546,11.425
16.5990,13.3622,0.8311,3.9474,13.958
16.6090,11.7126,0.1325,3.3494,12.183
16.6240,7.4165,0.0088,2.3426,7.778
16.6260,4.2018,0.1805,1.2360,4.384
16.6910,3.7625,0.1869,1.4496,4.036
16.6920,4.8559,0.4582,1.5296,5.112
16.6940,3.4031,0.6724,0.4367,3.496
16.6960,-0.0667,0.4071,-0.6029,0.731
16.6970,-0.3147,0.4624,-0.9809,1.129
16.6990,0.7571,0.4857,-0.8136,1.213
16.7000,0.5264,0.2918,-0.5733,0.831
16.7010,-0.1776,0.2465,-0.4734,0.562
16.7030,-0.2827,0.2129,-0.2348,0.425
16.7080,0.1430,0.1841,0.1050,0.256
16.7190,-0.0156,0.1724,0.2688,0.320
16.7230,-0.3444,0.2183,0.0915,0.418
16.7490,-0.3382,0.2143,-0.0352,0.402
16.7550,-0.2600,0.2057,-0.2209,0.398
16.7570,-0.4383,0.2351,-0.3931,0.634
16.7580,-0.3693,0.2218,-0.3335,0.545
16.7680,-0.1199,0.1855,-0.0093,0.221
16.8510,-0.1244,0.1816,0.1831,0.286
16.8520,-0.4458,0.2822,-0.0002,0.528
16.8560,-0.8450,0.3269,-0.1703,0.922
16.8590,-1.0484,0.3590,-0.2576,1.138
16.8610,-0.6866,0.3329,-0.1854,0.785
16.8620,-0.7188,0.3520,0.0239,0.801
16.8640,-0.6533,0.2309,0.0550,0.695
16.8650,-0.2018,0.1935,-0.1459,0.315
16.8660,-0.3759,0.2627,-0.3941,0.605
16.8670,-0.9315,0.3493,-0.4896,1.109
16.8690,-1.0453,0.2598,-0.5204,1.196
16.8710,-0.4692,0.1320,-0.5107,0.706
16.8780,-0.1277,0.1274,-0.3475,0.392
16.8830,-0.2214,0.2213,-0.2642,0.410
16.8880,-0.1586,0.2853,-0.1182,0.347
16.9200,-0.2669,0.4160,-0.0317,0.495
16.9210,-0.7249,0.6278,0.0906,0.963
16.9220,-0.7515,0.5982,0.0958,0.965
16.9250,-0.5855,0.5484,0.0255,0.803
17.0000,-0.8863,0.6615,-0.0770,1.109
17.0010,-1.4160,1.1375,-0.2286,1.831
17.0020,-1.8433,1.6341,-0.0580,2.464
17.0030,-2.0770,1.9275,-0.2280,2.843
17.0050,-2.2171,2.1286,-0.1794,3.079
17.0070,-2.2050,2.0768,0.2743,3.041
17.0080,-2.4486,2.3508,0.3083,3.408
17.0100,-2.9928,2.8417,0.0556,4.127
17.0110,-3.2991,3.2242,-0.1137,4.614
17.0140,-3.6164,3.4476,0.0236,4.996
17.0160,-3.9745,3.4169,0.2855,5.249
17.0230,-4.4816,3.4259,0.0514,5.641
17.0520,-4.9558,3.5264,-0.1222,6.084
17.0530,-5.3629,3.5972,0.1927,6.460
17.0540,-5.7583,3.6181,0.3157,6.808
17.0610,-6.0832,3.2372,-0.2999,6.897
17.0630,-6.4880,3.5348,-0.2242,7.392
17.1170,-7.4433,4.0770,-1.0369,8.550
17.1180,-9.0074,4.2950,-1.8195,10.143
17.1180,-10.7788,4.6288,-1.5633,11.834
17.1190,-13.4436,5.1870,-1.6288,14.501
17.1200,-16.2865,6.1904,-2.9443,17.670
17.1210,-17.1965,6.2716,-3.3777,18.613
17.1230,-16.5567,5.0476,-1.5926,17.382
17.1330,-13.9462,4.7919,-0.1895,14.748
17.1390,-7.1565,6.4515,-0.7751,9.666
17.1480,1.9238,9.0442,-2.5067,9.580
17.1640,6.8112,9.8057,-4.3306,12.700
17.1670,8.4127,9.9798,-6.3165,14.501
17.1980,8.7042,10.9460,-7.7214,15.975
17.2000,8.5586,11.2955,-6.5011,15.592
17.2010,11.2394,11.0813,-6.6589,17.131
17.2030,12.4307,10.3112,-5.4845,17.057
17.2050,12.7725,8.3153,-1.1863,15.287
17.2160,3.5363,4.7110,1.7477,6.144
17.2240,-9.6849,-1.1064,7.8862,12.539
17.2290,1.2231,4.1746,2.8624,5.207
17.2380,-3.5221,5.8850,-3.0203,7.494
17.2480,-17.2315,3.3089,-3.4023,17.873
17.2550,-20.3535,3.1775,-3.9094,20.968
17.2630,-17.3288,2.7757,-4.1885,18.043
17.2740,-15.5178,1.1855,-2.8259,15.817
17.2790,-14.0595,-0.2735,-1.1179,14.107
17.2890,-11.7986,-1.2208,0.0618,11.862
17.3020,-9.0902,-1.7575,0.0336,9.259
17.3070,-6.6796,-1.9524,-0.5078,6.978
17.3440,-5.3441,-1.9621,-0.5912,5.724
17.3470,-5.3797,-2.3065,-0.6652,5.891
17.3490,-6.5276,-2.7043,-0.9019,7.123
17.3520,-7.8359,-2.8379,-0.9475,8.388
17.3540,-8.6452,-2.5719,-1.1605,9.094
17.3560,-9.0593,-2.0346,-1.5205,9.409
17.3640,-8.5142,-1.5328,-1.7828,8.833
17.3740,-7.0030,-1.0725,-1.6632,7.277
17.3790,-5.5635,-0.7663,-1.3459,5.775
17.3880,-4.6791,-0.7024,-1.0149,4.839
17.3990,-4.1311,-0.6696,-0.7328,4.249
17.4040,-3.8104,-0.5393,-0.5866,3.893
17.4280,-3.7325,-0.2257,-0.5188,3.775
17.4300,-3.5836,0.3383,-0.6236,3.653
17.4310,-3.2876,1.0580,-0.7262,3.529
17.4870,-2.9058,1.8097,-0.7949,3.514
17.4880,-2.2527,2.6367,-0.9937,3.608
17.4890,-1.2973,3.5101,-1.1061,3.902
17.4900,-0.2038,4.3338,-1.1709,4.494
17.4910,0.9801,5.0531,-1.4919,5.359
17.4920,2.1136,5.4985,-1.8076,6.162
17.4930,2.8323,5.5126,-1.7924,6.452
17.4990,3.7532,5.6023,-1.7640,6.970
17.5040,6.4404,6.1699,-2.3828,9.232
17.5140,11.4793,6.6774,-3.2454,13.671
17.5230,15.1811,6.0876,-2.9828,16.626
17.5280,15.0984,4.5459,-1.6391,15.853
17.5380,13.1520,3.1118,-0.3744,13.520
17.5480,11.6063,2.5109,-0.0613,11.875
17.5640,10.7415,2.8869,-1.0257,11.170
17.5660,11.9259,3.7337,-1.4333,12.579
17.5700,14.0690,3.7261,-0.9365,14.584
17.5930,15.8943,2.6248,-0.0520,16.110
17.5950,16.3046,2.9678,-0.1095,16.573
17.5960,17.6898,3.4357,-2.4197,18.182
17.6040,23.9246,-0.0604,0.4964,23.930
17.6150,19.9688,2.3927,1.9773,20.209
17.6190,20.7647,-1.6853,-0.9969,20.857
17.6290,19.0753,-4.6171,4.6391,20.167
17.6390,13.5778,4.4538,1.0416,14.328
17.6430,20.6104,-1.5068,-2.6222,20.831
17.6540,15.1763,-2.5767,4.1166,15.934
17.6660,8.3384,0.1378,11.0545,13.847
17.6690,-1.1613,1.2066,4.7257,5.014
17.6790,-5.8945,3.6532,5.9184,9.117
17.6890,2.1681,2.3501,11.1535,11.603
17.6930,17.2398,2.3704,9.1866,19.678
17.7050,31.1886,2.6238,4.6852,31.647
17.7440,19.7668,1.1437,0.6066,19.809
17.7460,-0.3349,-1.3225,0.2398,1.385
17.7470,-2.8388,-1.2628,0.0364,3.107
17.7480,2.6339,0.3710,-0.1549,2.664
17.7490,3.0054,0.7646,0.2184,3.109
17.7560,0.3118,0.5415,0.7059,0.943
17.7640,-1.6120,0.1460,0.8717,1.838
17.7690,0.3519,0.2094,0.8577,0.950
17.7790,1.9310,0.3005,0.8100,2.116
17.7880,0.6932,0.2266,0.5059,0.888
17.7970,0.0489,0.2162,0.4490,0.501
17.8030,0.4840,0.2035,0.7309,0.900
17.8150,0.3600,0.2130,0.5849,0.719
17.8190,0.0360,0.2260,0.1288,0.263
17.8290,-0.0128,0.2493,-0.3688,0.445
17.8390,0.0215,0.3187,-0.7253,0.793
17.8440,-0.0714,0.3848,-0.8362,0.923
17.9060,-0.2080,0.4182,-0.6963,0.838
17.9070,-0.1144,0.4709,-0.5325,0.720
17.9080,-0.3099,0.6005,-0.5077,0.845
17.9080,0.0854,0.5463,-0.4857,0.736
17.9090,-0.3437,0.5809,-0.0667,0.678
17.9100,-1.1187,0.2971,0.0057,1.158
17.9100,-0.7747,0.2369,0.3281,0.874
17.9180,-0.6896,0.1495,0.7824,1.054
17.9200,-0.9263,-0.0194,1.0727,1.417
17.9290,-0.7766,-0.0866,1.0347,1.297
17.9340,-0.6262,-0.1069,0.8293,1.045
17.9440,-0.5441,-0.1858,0.4809,0.750
17.9590,-0.9314,-0.1135,0.1401,0.949
17.9650,-0.7917,0.1041,-0.2802,0.846
17.9710,-0.5712,0.1850,-0.4131,0.729
18.0350,-0.4430,0.3568,-0.4058,0.699
18.0370,-0.4126,0.4642,-0.3067,0.693
18.0380,-0.4438,0.5422,-0.3082,0.765
18.0390,-0.9223,0.9246,-0.1864,1.319
18.0400,-1.1453,1.0228,-0.0581,1.537
18.0410,-0.9508,1.1764,-0.0503,1.513
18.0440,-0.9429,1.5135,-0.0844,1.785
18.0450,-1.1295,1.5567,0.0984,1.926
18.0460,-1.1430,1.1182,0.2156,1.613
18.0540,-1.2771,1.2129,0.0812,1.763
18.0590,-1.5990,1.1745,0.0387,1.984
18.0690,-1.8297,1.3864,-0.1831,2.303
18.0790,-2.3040,2.0063,-0.2156,3.063
18.0850,-2.8802,2.8315,-0.4382,4.063
18.1040,-3.3323,3.4306,-0.7254,4.837
18.1050,-3.8917,3.8089,-0.7486,5.497
18.1090,-4.2344,4.1621,-0.7887,5.990
18.1620,-4.4118,4.2897,-0.7653,6.201
18.1630,-4.8131,4.3623,-0.6068,6.524
18.1640,-5.4429,4.4783,-0.7674,7.090
18.1650,-6.3727,4.5196,-1.1331,7.894
18.1660,-7.3825,4.8510,-1.8533,9.026
18.1670,-8.5006,5.5395,-2.6385,10.484
18.1690,-10.4266,6.0445,-3.0205,12.425
18.1790,-12.8092,6.0978,-2.8783,14.476
18.1840,-15.1037,6.1957,-2.2102,16.474
18.1950,-18.0781,6.7284,-0.6195,19.300
18.2040,-21.1205,7.7183,-1.5050,22.537
18.2090,-22.8159,7.4353,-2.7342,24.152
18.2200,-16.4197,4.5874,-0.5969,17.059
18.2290,0.5205,2.3356,1.9117,3.063
18.2480,14.6302,3.1799,-1.6002,15.057
18.2690,17.0012,5.0009,-5.2208,18.475
18.2710,13.7102,5.4812,-5.7588,15.849
18.2750,15.8867,6.0913,-6.0778,18.067
18.2770,19.7201,6.8711,-4.8360,21.435
18.2820,10.9477,6.0607,-2.2312,12.711
18.2850,11.5075,5.4707,3.3298,13.170
18.2950,12.7870,3.1572,2.7169,13.448
18.3000,-0.5266,-2.3162,6.7356,7.142
18.3090,-1.4656,4.1053,0.3896,4.376
18.3190,-9.6748,6.5860,-5.4157,12.896
18.3250,-27.1998,3.2083,-2.3291,27.487
18.3480,-32.8008,1.4038,-2.0447,32.894
18.3510,-23.2658,1.6049,-4.4900,23.749
18.3540,-13.3556,1.4484,-3.7910,13.959
18.3590,-10.3939,-0.0318,-0.3923,10.401
18.3690,-9.0940,-1.2335,1.7084,9.335
18.4140,-7.4418,-1.8202,2.2979,7.998
18.4160,-7.6621,-1.6343,2.1525,8.125
18.4180,-8.7180,-0.9080,1.1182,8.836
18.4190,-8.9016,-0.1117,0.0726,8.903
18.4210,-8.9690,0.4137,-0.2062,8.981
18.4220,-9.4931,0.4601,0.0662,9.504
18.4250,-10.3323,0.4081,0.6160,10.359
18.4350,-10.5280,0.5006,0.9653,10.584
18.4450,-10.0110,0.7272,1.2345,10.113
18.4510,-8.9803,0.9428,1.4829,9.151
18.4600,-7.8371,1.1586,1.6163,8.086
18.4700,-6.4890,1.3826,1.8172,6.879
18.4950,-5.0954,1.5573,2.0068,5.693
18.4960,-4.3038,1.8069,1.9847,5.072
18.4960,-3.8186,2.2035,1.7385,4.739
18.4990,-3.2140,2.6713,1.5133,4.445
18.5090,-2.4071,3.0103,1.5679,4.161
18.5430,-1.6716,3.2400,1.5371,3.957
18.5440,-1.2313,3.4564,1.3935,3.925
18.5450,-0.8184,3.6629,1.2974,3.971
18.5460,-0.3614,3.7908,1.1881,3.989
18.5490,0.0403,4.0135,0.9012,4.114
18.5600,0.3866,4.3416,0.7083,4.416
18.5700,0.9268,4.6205,0.5543,4.745
18.5750,1.9183,5.0060,0.2058,5.365
18.5840,3.2735,5.5456,-0.1067,6.441
18.5970,4.7505,5.9562,-0.4803,7.634
18.6000,6.3514,6.1644,-0.6661,8.876
18.6090,8.0525,6.2456,-0.8293,10.224
18.6200,9.7771,6.1535,-0.9875,11.595
18.6240,11.7815,5.7619,-0.9102,13.147
18.6820,13.8820,4.9594,-0.4184,14.747
18.6830,15.4695,3.8632,0.1591,15.945
18.6840,16.1562,2.8620,0.2771,16.410
18.6850,16.6574,1.9716,0.6323,16.786
18.6860,21.2483,1.1072,0.3686,21.280
18.6860,28.1106,0.1450,0.1859,28.112
18.6870,29.5440,-1.0949,0.8246,29.576
18.6900,24.8507,-2.0551,1.7836,24.999
18.7000,20.6906,-2.3502,2.0542,20.925
18.7100,16.1262,-1.2484,1.1805,16.217
18.7150,1.3803,8.6680,-2.6972,9.182
18.7250,9.1083,2.4987,-8.8157,12.920
18.7350,13.4960,-2.2984,-0.0882,13.691
18.7390,10.5015,2.5962,3.5336,11.380
18.7500,16.0508,-1.7556,-1.6991,16.236
18.7700,5.2851,2.1204,0.7640,5.746
18.7720,-9.7089,2.2263,2.0816,10.176
18.8520,-11.1146,-0.2945,3.1562,11.558
18.8540,2.3410,1.9534,11.0103,11.425
18.8560,21.5459,2.7035,11.9903,24.805
18.8580,32.4702,2.7064,7.2383,33.377
18.8600,18.5215,0.4663,1.2864,18.572
18.8620,-3.1806,-1.0055,0.7511,3.419
18.8630,-5.3821,-1.2995,0.8248,5.598
18.8650,3.2750,0.2736,1.0994,3.465
18.8660,3.5825,0.4937,1.5553,3.937
18.8680,-0.5137,0.4152,0.4460,0.797
18.8690,-0.3706,0.4427,-0.2219,0.619
18.8710,0.7125,0.2940,0.3032,0.828
18.8770,1.1177,0.2255,0.3406,1.190
18.8850,1.0208,0.3849,-0.5004,1.200
18.8900,0.4579,0.3741,-0.6512,0.880
18.9050,0.2814,0.3527,-0.6885,0.823
18.9140,0.0767,0.3453,-0.9915,1.053
18.9150,-0.0135,0.2922,-1.1195,1.157
19.0080,0.1094,0.2905,-0.8927,0.945
19.0100,0.0589,0.2457,-0.1975,0.321
19.0120,-0.0030,0.1638,0.4894,0.516
19.0140,-0.1649,0.2984,0.7678,0.840
19.0160,-0.2887,0.2777,0.4971,0.638
19.0180,-0.3239,0.3761,0.2451,0.554
19.0200,-0.5226,0.4446,0.0979,0.693
19.0220,-0.7004,0.4685,0.1724,0.860
19.0240,-0.4867,0.3840,0.3433,0.709
19.0260,-0.4865,0.3333,0.3647,0.693
19.0270,-0.6065,0.2416,0.1552,0.671
19.0280,-0.3895,0.2455,-0.0773,0.467
19.0300,-0.2888,0.2636,-0.0544,0.395
19.0410,-0.7034,0.1859,-0.0969,0.734
19.0430,-0.5907,0.1027,-0.2028,0.633
19.0510,-0.4047,0.0635,0.0293,0.411
19.0720,-0.4744,0.0054,0.2865,0.554
19.0730,-0.4193,-0.0210,0.3275,0.532
19.0910,-0.8667,0.2987,0.2275,0.944
19.0920,-1.4651,0.6808,0.1853,1.626
19.0940,-1.1139,0.5202,0.1778,1.242
19.1540,-0.7109,0.4888,-0.0135,0.863
19.1550,-0.6657,0.7461,-0.3188,1.050
19.1570,-0.7026,0.7720,-0.3190,1.092
19.1590,-0.6403,0.5835,0.0161,0.866
19.1610,-0.6180,0.3678,0.2046,0.748
19.1620,-0.7345,0.4504,0.3240,0.920
19.1630,-1.0726,0.8505,0.1616,1.378
19.1640,-1.6535,1.3180,-0.1151,2.118
19.1660,-1.8834,1.6362,-0.3078,2.514
19.1770,-1.5432,1.8026,-0.4960,2.424
19.1810,-1.5397,1.8934,-0.6595,2.528
19.1900,-1.9719,2.0414,-0.9301,2.987
19.2040,-2.5003,2.2579,-1.0943,3.542
19.2050,-3.1396,2.5471,-0.9673,4.157
19.2730,-3.4974,2.9931,-0.6790,4.653
19.2740,-3.8143,3.5829,-0.6177,5.269
19.2750,-4.4412,4.0734,-0.4646,6.044
19.2760,-4.9412,4.2476,-0.0392,6.516
19.2770,-5.4465,4.3376,0.3639,6.972
19.2780,-6.1826,4.4737,0.4583,7.645
19.2800,-7.1962,4.5399,0.1132,8.509
19.2810,-8.3662,4.5320,-0.6709,9.538
19.2820,-9.6875,4.4273,-1.1513,10.713
19.2910,-10.9124,4.3627,-1.0447,11.798
19.3000,-12.3337,4.6705,-0.5384,13.199
19.3050,-15.0873,5.8311,-0.7408,16.192
19.3250,-18.4400,6.9314,-2.4515,19.852
19.3270,-19.4540,6.4444,-3.4898,20.789
19.3300,-15.7332,6.0479,-3.1590,17.149
19.3860,-7.0953,7.6902,-2.7638,10.822
19.3890,1.4905,9.2736,-2.6806,9.768
19.3910,7.4630,9.0643,-3.9873,12.400
19.3930,12.6939,9.6946,-5.6636,16.947
19.3940,11.5542,9.6201,-4.6317,15.732
19.3960,9.6969,8.9812,-4.9770,14.123
19.3980,11.5065,8.9578,-6.5003,15.965
19.4000,11.1744,9.2254,-5.0624,15.349
19.4050,10.4185,9.1959,-1.6823,13.998
19.4320,-4.2645,3.9116,2.1897,6.187
19.4330,-9.0216,-5.5813,11.9514,15.980
19.4360,12.3621,3.3286,3.6732,13.319
19.4390,4.5498,6.7547,-3.0637,8.701
19.4440,-18.1986,3.6233,-3.3409,18.854
19.4570,-25.7429,3.8908,-4.4604,26.415
19.4650,-21.2170,4.2634,-3.6902,21.953
19.4700,-16.2292,2.8284,-1.4808,16.540
19.4800,-14.0254,1.1238,0.6397,14.085
19.4900,-11.4974,0.1273,1.9682,11.665
19.4950,-8.2889,-0.2270,2.1727,8.572
19.5050,-6.3727,-0.3925,1.7614,6.623
19.5170,-6.3792,-0.7392,1.3707,6.567
19.5200,-7.5361,-1.0227,1.0194,7.673
19.5360,-8.8130,-0.9901,0.5496,8.886
19.5640,-9.4411,-0.6029,0.1500,9.462
19.5660,-9.1830,-0.1601,-0.1481,9.186
19.5670,-7.9515,0.0262,-0.0943,7.952
19.5690,-6.6007,-0.0028,0.4276,6.615
19.5710,-5.5145,-0.2016,0.8390,5.582
19.6320,-4.7281,-0.3636,1.1073,4.870
19.6350,-4.2474,-0.3801,1.1938,4.428
19.6370,-3.9428,-0.2212,1.0686,4.091
19.6390,-3.5905,0.1718,0.7882,3.680
19.6420,-3.2197,0.7204,0.4914,3.336
19.6440,-2.8468,1.3569,0.0339,3.154
19.6460,-2.1354,2.0969,-0.5244,3.038
19.6480,-1.0930,2.8358,-0.9110,3.173
19.6510,-0.2242,3.3381,-0.7976,3.439
19.6580,0.7016,3.6534,-0.7519,3.795
19.6650,2.0241,3.9861,-0.6418,4.516
19.6700,3.6995,4.2507,-0.6748,5.675
19.6800,5.2754,4.3847,-1.0251,6.936
19.6910,6.6073,4.5386,-1.3705,8.132
19.7120,8.3521,4.7165,-1.7641,9.753
19.7180,10.5868,4.5529,-1.9827,11.694
19.7210,12.0422,3.8886,-1.4231,12.734
19.7250,12.7804,3.0614,-0.5761,13.155
19.7960,15.2563,2.5422,-0.2983,15.469
19.7980,20.3212,2.0059,-0.1700,20.421
19.7990,24.8889,0.7940,0.4127,24.905
19.8010,26.2473,-0.7001,1.1305,26.281
19.8030,24.6790,-2.0378,1.9711,24.841
19.8050,21.7738,-2.8739,1.7333,22.031
19.8060,20.6575,-2.9392,0.9124,20.885
19.8080,22.3279,-2.9259,0.7195,22.530
19.8100,23.6609,-3.5211,0.6693,23.931
19.8120,19.2012,-1.6654,1.0051,19.300
19.8140,4.7551,9.6371,-5.1700,11.925
19.8210,14.7081,-1.6736,-8.5031,17.071
19.8300,7.2423,1.3311,0.8993,7.418
19.8490,9.0496,0.5759,-2.7980,9.490
19.8510,4.2128,-2.1053,11.3789,12.315
19.8620,-7.8192,2.2072,8.2049,11.547
19.8640,-4.2140,2.7292,10.3807,11.531
19.8700,12.0289,3.9718,15.3797,19.925
19.9620,27.0644,2.4666,8.6762,28.528
19.9630,21.7820,1.3615,1.3319,21.865
19.9650,5.2854,0.3975,-2.0563,5.685
19.9770,-6.0909,-1.0600,-2.3553,6.616
19.9780,-3.3073,-0.7949,-0.6960,3.472
19.9800,6.0321,0.4061,0.5946,6.075
19.9810,6.3767,0.5165,1.9075,6.676
19.9830,-0.1939,0.1538,2.0674,2.082
19.9850,-2.8705,0.0179,0.5102,2.916
19.9860,0.7163,0.3968,-0.5603,0.992
19.9870,2.0274,0.4080,-0.3936,2.105
19.9880,-0.0869,0.2244,-0.2977,0.383
19.9890,-0.1938,0.2505,-0.5089,0.599
19.9900,0.3877,0.2643,-0.4254,0.633
19.9960,-0.1329,0.2331,-0.4357,0.512
20.0050,-0.4327,0.2606,-0.4997,0.711
20.0100,-0.1249,0.1990,-0.2330,0.331
20.0280,0.1075,0.1653,0.0594,0.206
20.0310,0.0783,0.1513,0.3634,0.401
20.0710,-0.0305,0.1381,0.5153,0.534
20.0710,0.0629,0.1507,0.4202,0.451
20.0720,-0.0637,0.1726,0.2282,0.293
20.0730,-0.3725,0.2118,0.0677,0.434
20.0730,-0.6332,0.3150,-0.1638,0.726
20.0790,-0.6043,0.3383,-0.2993,0.754
20.0850,-0.2966,0.3511,-0.4541,0.646
20.0950,-0.3257,0.3199,-0.3352,0.566
20.1050,-0.6571,0.2178,0.1173,0.702
20.1100,-0.5680,0.1094,0.5866,0.824
20.1250,-0.1252,0.0568,0.7148,0.728
20.1310,-0.3784,0.1357,0.7125,0.818
20.1900,-0.8442,0.1196,0.4648,0.971
20.1920,-0.6155,0.1164,0.1916,0.655
20.1930,-0.4514,0.2435,-0.0185,0.513
20.1950,-0.7061,0.2796,-0.2064,0.787
20.1950,-0.8113,0.2680,-0.3653,0.929
20.1970,-0.8055,0.2860,-0.4491,0.966
20.1980,-0.8814,0.2700,-0.5199,1.058
20.1990,-0.6432,0.2162,-0.3013,0.742
20.2000,-0.3362,0.0976,0.0197,0.351
20.2110,-0.1811,0.0637,0.3057,0.361
20.2250,-0.2754,0.1940,0.4444,0.558
20.2260,-0.4655,0.3056,0.4994,0.748
20.2370,-0.5497,0.5068,0.4847,0.891
20.2450,-0.8590,0.8252,0.4992,1.292
20.2500,-1.1129,0.9072,0.6204,1.564
20.2640,-1.0734,1.0149,0.4127,1.534
20.2710,-1.1486,1.2779,0.0211,1.718
20.3350,-1.5003,1.6905,-0.8193,2.404
20.3370,-1.8869,1.9536,-1.2427,2.987
20.3380,-2.1256,2.1452,-1.0662,3.203
20.3400,-2.3106,2.3802,-0.7748,3.407
20.3410,-2.6534,2.7043,-0.4290,3.813
20.3430,-3.2385,3.0353,-0.2220,4.444
20.3440,-3.9142,3.3349,-0.1296,5.144
20.3450,-4.4177,3.5156,-0.1294,5.647
20.3470,-4.5289,3.6310,-0.1008,5.806
20.3500,-4.5784,3.6646,-0.0419,5.865
20.3600,-4.9484,3.6418,0.0571,6.144
20.3700,-5.4232,3.7536,0.1276,6.597
20.3920,-5.9678,3.9295,-0.1636,7.147
20.3930,-6.8538,4.1672,-0.5822,8.042
20.3960,-8.0050,4.4013,-0.8719,9.177
20.4000,-9.5272,4.9119,-0.6995,10.742
20.4330,-12.2281,6.1731,-0.5456,13.709
20.4340,-15.7510,7.8674,-2.2455,17.749
20.4350,-18.0370,8.1293,-2.8634,19.990
20.4360,-18.5033,6.2154,-0.9793,19.544
20.4450,-18.6185,3.8731,0.8720,19.037
20.4530,-16.7607,3.4645,-0.1132,17.115
20.4630,-5.5337,3.5165,2.1834,6.911
20.4710,8.0144,4.0127,1.7791,9.138
20.4750,12.9218,4.8967,-3.0033,14.141
20.4860,12.4555,6.4152,-6.5367,15.460
20.5050,10.5457,8.1388,-7.4883,15.282
20.5070,10.4101,8.8608,-5.6335,14.786
20.5420,11.1987,8.3707,-5.6851,15.093
20.5440,14.9598,8.5204,-2.3809,17.380
20.5460,14.6155,6.6801,2.0815,16.204
20.5480,-1.7668,2.4060,4.7695,5.627
20.5530,-9.0581,-3.8847,14.0579,17.169
20.5550,8.1963,4.0240,6.2382,11.058
20.5610,2.8399,7.2560,-0.5722,7.813
20.5650,-16.1273,4.0695,-0.7443,16.649
20.5750,-23.3833,3.4986,-1.5512,23.694
20.5850,-19.9593,4.5087,-3.2145,20.713
20.5900,-15.9046,3.9299,-3.0937,16.673
20.6030,-13.2574,2.1929,-2.1280,13.605
20.6110,-10.3623,0.9248,-0.9576,10.447
20.6370,-8.0023,0.1001,-0.2578,8.007
20.6390,-7.6629,-0.5254,-0.2110,7.684
20.6400,-7.8308,-0.9405,-0.2980,7.893
20.6420,-8.1608,-0.9912,-0.3684,8.229
20.6500,-9.2003,-0.9615,-0.9738,9.302
20.6610,-10.5045,-0.8372,-1.6090,10.660
20.6650,-11.2884,-0.4038,-1.9145,11.457
20.6750,-10.9638,0.2086,-2.0511,11.156
20.6860,-10.4336,0.7823,-1.5528,10.577
20.6900,-9.4846,1.1314,-0.9410,9.598
20.7010,-8.3185,1.3343,-0.3535,8.432
20.7110,-7.4129,1.6067,-0.1617,7.587
20.7170,-6.4941,2.0720,-0.1495,6.818
20.7260,-5.2500,2.4108,0.1399,5.779
20.7520,-4.0634,2.5359,0.2926,4.799
20.7560,-3.1017,2.6171,0.4740,4.086
20.7580,-2.3772,2.7206,0.5789,3.659
20.7640,-2.2246,2.8930,0.4820,3.681
20.7700,-2.5704,3.1462,0.5188,4.096
20.8000,-2.9189,3.4147,0.4195,4.512
20.8010,-3.2378,3.8235,0.3275,5.021
20.8010,-3.2439,4.5332,-0.0702,5.575
20.8020,-2.0897,5.6067,-1.1081,6.085
20.8100,0.1844,6.8045,-2.1847,7.149
20.8200,3.1286,7.6445,-2.9311,8.765
20.8250,6.0051,7.5688,-2.8161,10.064
20.8440,8.0687,6.6728,-1.8603,10.634
20.8460,9.1948,5.5825,-1.0139,10.804
20.8750,10.1472,4.9514,-0.7168,11.314
20.8760,11.9580,4.8804,-0.3928,12.922
20.8780,14.9857,4.6186,-0.8513,15.704
20.8790,19.0564,4.0711,-1.9338,19.582
20.8800,23.9297,2.9900,-1.7027,24.176
20.8960,26.0235,0.5502,-0.3236,26.031
20.9020,22.5714,-2.1238,1.1545,22.701
20.9060,17.9688,-3.5433,1.5083,18.377
20.9160,18.0575,-3.2575,1.4733,18.408
20.9260,21.5725,-2.9864,1.4061,21.824
20.9330,25.9576,-3.2340,1.1787,26.185
20.9410,27.9148,-3.4983,1.2519,28.161
20.9500,22.2476,-2.5577,1.5254,22.446
20.9570,1.2194,9.1984,-4.3209,10.236
20.9660,8.8081,0.3875,-9.3719,12.867
20.9830,10.3881,-3.6019,2.2156,11.216
20.9850,10.7481,-1.3282,1.3346,10.912
21.0660,1.9909,0.9744,2.3462,3.228
21.0680,-9.6508,0.5947,2.9301,10.103
21.0700,-8.4001,0.3661,13.3695,15.794
21.0720,13.6221,0.5586,9.5485,16.645
21.0740,29.5837,4.0133,4.3411,30.169
21.0760,26.0666,2.0084,5.8342,26.787
21.0770,17.0949,-0.1497,4.4909,17.676
21.0790,7.2139,-1.1724,3.4122,8.066
21.0810,4.8999,-0.7826,1.6326,5.224
21.0840,4.9290,0.0659,0.9756,5.025
21.0850,1.6809,0.2890,1.7864,2.470
21.0870,-1.2122,0.1725,1.5581,1.982
21.0910,-0.7373,0.3592,0.1083,0.827
21.1020,-0.1131,0.4722,-0.7010,0.853
21.1060,-0.1542,0.3404,-0.7595,0.846
21.1170,0.2644,0.3325,-0.6938,0.814
21.1260,0.3471,0.4916,-1.4488,1.569
21.1320,-0.3038,0.4201,-1.9845,2.051
21.1600,-0.0999,0.3517,-1.4648,1.510
21.1640,0.2323,0.3030,-0.7082,0.805
21.1840,-0.0455,0.2654,-0.2796,0.388
21.1850,-0.0638,0.2466,-0.2327,0.345
21.1860,0.0820,0.2124,-0.1562,0.276
21.1880,0.0142,0.1924,0.0090,0.193
21.2360,-0.2821,0.1822,0.1703,0.377
21.2390,-0.7642,0.1861,0.3506,0.861
21.2400,-0.9049,0.1842,0.5342,1.067
21.2420,-0.6756,0.1945,0.6515,0.959
21.2440,-0.5985,0.1991,0.4819,0.794
21.2450,-0.9214,0.2848,0.3141,1.014
21.2460,-0.9972,0.3019,-0.0299,1.042
21.2480,-0.5379,0.1973,-0.3493,0.671
21.2570,-0.2204,0.1503,-0.3569,0.446
21.2660,-0.1278,0.0176,-0.4907,0.507
21.2980,-0.2508,0.0192,-0.4548,0.520
21.2990,-0.3707,-0.0091,-0.1169,0.389
21.2990,-0.4469,0.0005,0.3746,0.583
21.3000,-0.6297,0.1573,0.2938,0.712
21.3050,-0.1813,0.3424,-0.0628,0.393
21.3570,-0.9352,0.3619,0.0795,1.006
21.3580,-1.5418,0.3723,0.3084,1.616
21.3590,-0.9614,0.2152,0.2366,1.013
21.3590,-0.5527,0.2804,0.1890,0.648
21.3600,-0.6625,0.3595,0.0281,0.754
21.3610,-0.7763,0.4485,-0.2325,0.926
21.3660,-0.7694,0.5688,-0.4241,1.047
21.3700,-0.6870,0.7679,-0.6034,1.194
21.3810,-0.8594,1.1587,-0.7477,1.625
21.3910,-1.2728,1.4225,-0.6956,2.032
21.4000,-2.0691,1.8701,-0.2420,2.799
21.4090,-3.1328,2.5265,1.0951,4.171
21.4700,-3.5217,2.6995,1.8880,4.822
21.4710,-3.1201,2.6457,1.3417,4.305
21.4720,-3.1222,2.8485,0.3476,4.241
21.4730,-3.1373,4.0399,-1.1665,5.246
21.4740,-3.6907,5.5742,-0.3062,6.692
21.4740,-6.1543,5.3075,0.9255,8.179
21.4750,-6.7351,4.5932,-0.3951,8.162
21.4760,-6.3721,4.8474,-1.3021,8.112
21.4810,-7.0001,5.1722,-1.1286,8.776
21.4930,-8.4906,5.0172,-1.3032,9.948
21.4980,-10.3277,4.6129,-1.2878,11.384
21.5060,-11.4200,4.7139,-0.6929,12.374
21.5160,-11.8212,4.7318,0.1595,12.734
21.5210,-12.8890,4.9945,1.2698,13.881
21.5310,-15.5910,5.9949,1.6168,16.782
21.5440,-19.4452,7.7420,0.4859,20.935
21.5490,-20.3264,8.0894,1.6699,21.941
21.6320,-16.7102,6.7489,3.1202,18.290
21.6720,-9.9530,7.1071,-1.2927,12.298
21.6740,1.2078,8.8165,-5.9966,10.731
21.6770,10.9322,9.0970,-5.0017,15.076
21.6780,12.8663,9.4108,-6.0781,17.060
21.6800,12.5816,10.7344,-8.1005,18.416
21.6820,13.2133,11.0465,-7.9717,18.978
21.6840,14.6502,10.9042,-7.3689,19.693
21.6860,15.5077,10.2737,-3.2749,18.888
21.6880,14.5715,7.6252,3.0379,16.724
21.6900,0.0884,0.6638,7.9078,7.936
21.6920,-3.1168,2.9531,7.9237,9.012
21.6940,1.2823,8.2926,1.4198,8.510
21.6950,-10.7396,5.9314,-1.2523,12.332
21.6970,-23.4681,3.8153,-2.1157,23.870
21.6990,-23.9744,4.6738,-4.1967,24.784
21.7010,-16.5508,5.3378,-6.4569,18.550
21.7030,-10.8421,4.2176,-5.8067,13.002
21.7090,-8.3628,2.1660,-2.6354,9.032
21.7110,-7.2772,-0.0586,0.7559,7.317
21.7220,-6.7951,-1.7936,2.7211,7.536
21.7470,-6.8191,-2.7713,2.7946,7.873
21.7510,-7.3747,-2.8182,1.1538,7.979
21.7550,-8.2808,-2.1440,-0.8410,8.595
21.8320,-8.8025,-1.3758,-2.6028,9.282
21.8340,-8.9602,-0.7451,-3.2370,9.556
21.8360,-8.5396,-0.6169,-2.8419,9.021
21.8380,-7.2128,-0.7786,-2.3032,7.612
21.8390,-5.6930,-0.8397,-1.6822,5.995
21.8410,-4.6329,-0.7565,-1.6119,4.963
21.8430,-3.9154,-0.4829,-1.6903,4.292
21.8440,-3.5075,-0.1971,-1.4397,3.797
21.8450,-3.1879,0.0199,-1.1215,3.379
21.8470,-2.6241,0.3526,-1.0797,2.859
21.8490,-1.8793,0.8696,-1.1876,2.387
21.8500,-1.3498,1.4487,-1.3139,2.376
21.8580,-1.0571,2.0984,-1.8079,2.965
21.8630,-0.8399,2.7957,-2.3656,3.757
21.9010,0.0266,3.3524,-2.2644,4.046
21.9090,1.6601,3.7015,-1.7714,4.427
21.9140,3.5332,4.0430,-1.6790,5.626
21.9160,4.8213,4.6377,-1.8242,6.934
21.9180,5.4653,5.3646,-2.0949,7.940
21.9190,6.1982,6.0727,-2.8206,9.124
21.9220,7.5058,6.5083,-3.3832,10.495
21.9730,9.6619,6.6067,-3.4985,12.216
21.9750,12.8151,6.3912,-3.4738,14.736
21.9770,16.5670,5.7097,-3.0430,17.786
21.9790,19.6862,4.2526,-1.9192,20.232
21.9810,20.7566,2.5655,-0.6553,20.925
21.9820,20.6210,1.3069,0.1269,20.663
21.9840,20.1024,0.3780,0.2397,20.107
21.9870,20.9467,-0.2545,-0.1822,20.949
21.9980,23.3389,-0.7456,-1.0348,23.374
22.0020,24.7415,-1.5550,-0.9948,24.810
22.0310,23.4904,-2.5496,-0.5978,23.636
22.0390,13.6262,2.7940,-0.4804,13.918
22.0410,0.2219,13.9823,-9.1895,16.733
22.0420,15.6434,-0.5101,-8.3344,17.732
22.0470,16.3002,-4.0668,2.8770,17.044
22.0520,15.3406,-1.3622,0.2368,15.403
22.1310,8.0344,-1.9730,8.6329,11.957
22.1330,-4.3534,0.4175,15.1639,15.782
22.1350,-4.6843,1.3658,13.1752,14.050
22.1370,10.7729,1.2956,9.0165,14.108
22.1390,29.0716,3.3423,5.5602,29.787
22.1410,30.3331,2.6378,1.4108,30.480
22.1450,10.6419,1.5358,0.8144,10.783
22.1470,-3.5190,-0.5393,1.0350,3.707
22.1480,0.7904,0.0282,0.2040,0.817
22.1500,9.8472,0.7275,0.7874,9.905
22.1520,7.3760,0.4556,1.4569,7.532
22.1550,-0.4927,-0.0070,0.9277,1.050
22.1620,-1.0419,0.3356,-0.8680,1.397
22.1870,0.7913,0.6462,-1.6415,1.933
22.1890,0.3867,0.4107,-1.2192,1.343
22.1910,-0.1521,0.3308,-0.7668,0.849
22.2760,-0.1133,0.2942,-0.3046,0.438
22.2770,-0.2444,0.2425,-0.1461,0.374
22.2780,-0.3694,0.2503,-0.2497,0.511
22.2800,-0.6033,0.2362,-0.1354,0.662
22.2810,-0.2267,0.2433,-0.0285,0.334
22.2820,0.1153,0.3144,-0.3176,0.462
22.2840,0.0320,0.2891,-0.4847,0.565
22.2850,-0.1412,0.3648,-0.4066,0.564
22.2860,-0.5761,0.3490,-0.1699,0.695
22.2880,-0.9237,0.4377,-0.1031,1.027
22.2890,-0.4252,0.2815,-0.0835,0.517
22.2900,-0.3870,0.2996,0.3128,0.581
22.2980,-1.2567,0.2207,0.3267,1.317
22.3020,-0.7919,0.0955,0.1718,0.816
22.3250,-0.2231,0.0315,0.0552,0.232
22.3260,-0.4458,0.1452,-0.0370,0.470
22.3310,-0.8696,0.1916,-0.1017,0.896
22.4340,-1.0507,0.1229,-0.0133,1.058
22.4350,-0.6087,-0.1073,0.0921,0.625
22.4370,0.1185,-0.3315,0.1466,0.381
22.4380,0.1373,-0.2757,0.3256,0.448
22.4400,-0.6648,-0.0283,0.2343,0.705
22.4410,-0.9542,0.2825,-0.0004,0.995
22.4420,-0.8782,0.4696,0.0103,0.996
22.4790,-0.7291,0.4050,0.1780,0.853
22.4810,-0.2137,0.2344,0.3052,0.440
22.4820,0.0567,0.1917,0.2725,0.338
22.4840,0.2579,0.2172,0.1679,0.377
22.4860,-0.2541,0.4606,-0.1623,0.551
22.4890,-1.3534,0.9732,-0.4606,1.729
22.4920,-2.4988,1.3903,-0.5602,2.914
22.4940,-2.0142,1.3364,-0.4160,2.453
22.4960,-1.0999,1.2762,0.2171,1.699
22.4980,-1.1344,1.5591,0.6938,2.049
22.5000,-2.2540,2.6352,0.3412,3.484
22.5030,-3.4308,3.2869,0.3728,4.766
22.5050,-3.4177,3.2985,0.6217,4.790
22.5070,-3.1591,3.0934,0.9657,4.526
22.5150,-3.5731,3.0971,0.8769,4.809
22.5170,-4.2417,3.2805,0.2550,5.368
22.5280,-3.8304,3.3313,-0.7163,5.127
22.5460,-4.5511,4.1100,-0.0376,6.132
22.5480,-5.9544,4.8127,-0.6952,7.688
22.6280,-7.3187,4.9922,-1.5119,8.987
22.6290,-7.8595,4.8128,-1.2617,9.302
22.6310,-7.8787,4.7130,-0.8212,9.217
22.6330,-8.2646,4.9651,-1.3258,9.732
22.6360,-9.8228,5.2340,-2.0557,11.318
22.6380,-12.1061,5.1683,-1.7533,13.279
22.6410,-14.8811,5.2276,-1.2731,15.824
22.6430,-18.4843,6.1522,-2.1273,19.597
22.6460,-20.5187,6.6698,-2.2469,21.692
22.6480,-18.8004,5.8505,-0.7530,19.704
22.6500,-14.0772,5.7004,-0.3953,15.193
22.6520,-4.9993,7.3171,-1.5120,8.990
22.6530,3.4198,8.6791,-2.8905,9.766
22.7150,4.9167,9.3655,-4.8963,11.656
22.7170,0.8640,8.9023,-5.8777,10.703
22.7190,-0.1062,7.7116,-3.9370,8.659
22.7210,5.8801,6.7101,-5.9683,10.734
22.7230,13.5385,6.7384,-8.3996,17.299
22.7260,22.3168,8.0367,-5.3291,24.311
22.7290,27.1133,8.1123,0.6299,28.308
22.7320,7.6991,3.1134,5.1576,9.776
22.7360,-3.9710,-2.5961,11.6893,12.615
22.7370,7.8345,4.8499,2.3285,9.504
22.7620,-3.0059,6.2713,-3.0630,7.599
22.7640,-21.8095,2.6783,-1.9867,22.063
22.7670,-27.1790,2.3010,-2.6809,27.408
22.7690,-21.3274,3.5324,-4.7420,22.132
22.7770,-16.9457,2.5866,-4.2241,17.655
22.8300,-14.2420,1.2415,-2.3401,14.486
22.8340,-11.1840,0.4383,-0.4680,11.202
22.8350,-8.3934,-0.3084,1.2282,8.488
22.8370,-6.3254,-1.0648,2.3467,6.830
22.8390,-4.9757,-1.5433,2.3630,5.720
22.8410,-5.0509,-1.7778,1.7457,5.632
22.8440,-6.2300,-1.8254,0.9532,6.561
22.8460,-7.4857,-1.8177,0.4017,7.714
22.8730,-8.4572,-1.7746,0.1356,8.642
22.8740,-8.8140,-1.6354,0.0753,8.965
22.8750,-7.9811,-1.3774,0.1956,8.101
22.8760,-6.5845,-1.0051,0.3339,6.669
22.8810,-5.4068,-0.5792,0.4642,5.458
22.9240,-4.5703,-0.1686,0.4809,4.599
22.9250,-3.8844,0.3550,0.4743,3.929
22.9260,-3.3214,0.9654,0.5163,3.497
22.9270,-2.6749,1.5953,0.5552,3.164
22.9270,-1.9389,2.2554,0.6142,3.037
22.9330,-1.0672,2.9538,0.6996,3.218
22.9420,-0.3036,3.6407,0.6909,3.718
22.9590,0.0708,4.2306,0.4884,4.259
22.9600,0.1452,4.7895,0.2462,4.798
22.9670,0.6030,5.2899,0.3623,5.336
22.9970,1.6783,5.8055,0.1991,6.046
22.9980,2.7708,6.5371,-0.4690,7.116
22.9990,4.1737,7.4139,-1.8333,8.703
23.0020,6.2322,8.0841,-2.8592,10.600
23.0070,8.8127,7.9324,-2.5334,12.125
23.0170,11.7609,6.8790,-1.9217,13.760
23.0270,14.3847,5.4086,-1.1985,15.415
23.0330,15.8138,3.8242,-0.2715,16.272
23.0420,16.0340,2.3161,0.2713,16.203
23.0530,16.2218,1.3640,0.4462,16.285
23.0570,17.4537,1.0536,0.6448,17.497
23.0670,19.0931,0.8988,0.7417,19.129
23.0790,20.7416,0.8235,0.7023,20.770
23.0820,22.0918,0.7260,0.6619,22.114
23.1260,22.4265,0.1673,0.5080,22.433
23.1280,20.9682,-0.7389,0.0980,20.981
23.1290,18.5931,-1.7851,0.1084,18.679
23.1300,16.3271,-2.8639,0.3477,16.580
23.1320,14.7688,-3.6122,1.0986,15.244
23.1330,4.7468,4.2092,0.2003,6.347
23.1440,-3.6876,13.6501,-12.4620,18.847
23.1470,18.0084,-4.2795,-9.4218,20.770
23.1570,7.7608,-1.1004,7.3517,10.747
23.1670,0.7317,-0.6786,11.1905,11.235
23.1840,-11.9987,-3.1405,-0.4602,12.411
23.1850,-13.6094,-2.5679,8.1526,16.071
23.2480,8.4829,-1.0619,11.3764,14.231
23.2500,32.6751,3.3550,7.8739,33.778
23.2500,33.6211,5.3191,5.5627,34.491
23.2520,23.5999,2.7797,1.5268,23.812
23.2600,5.6593,0.7190,-0.3461,5.715
23.2610,-3.6977,-0.7763,0.4496,3.805
23.2620,3.2383,0.2204,-0.1882,3.251
23.2630,7.2995,1.1226,0.3546,7.394
23.2640,2.1692,0.4318,0.5914,2.289
23.2670,-0.9287,0.1579,-0.7623,1.212
23.2720,0.7989,0.4462,-1.3492,1.630
23.2820,1.3077,0.4297,-0.6322,1.515
23.2930,0.0848,0.2455,0.1092,0.282
23.2970,-0.3392,0.1836,0.2605,0.465
23.3070,-0.4261,0.2420,0.1198,0.504
23.3170,-0.6640,0.2495,-0.2580,0.755
23.3220,-0.1212,0.2610,-0.4205,0.510
23.3390,0.2992,0.2592,-0.4975,0.636
23.3440,0.2510,0.2807,-0.9378,1.011
23.3470,0.2019,0.3062,-1.1311,1.189
23.4010,0.0325,0.2622,-0.6200,0.674
23.4020,-0.3307,0.2077,-0.0196,0.391
23.4030,-0.5005,0.1710,0.0064,0.529
23.4040,-0.3809,0.1323,-0.0422,0.405
23.4060,-0.4856,0.1684,-0.1625,0.539
23.4070,-0.8368,0.1589,-0.3633,0.926
23.4080,-0.4953,0.1622,-0.4298,0.676
23.4190,-0.4241,0.1981,-0.2947,0.553
23.4220,-0.6944,0.1868,-0.0434,0.720
23.4340,-0.8457,0.2147,0.2944,0.921
23.4370,-0.9241,0.1373,0.7458,1.195
23.4470,-0.6729,-0.0728,0.8036,1.051
23.4630,0.0086,-0.0965,0.6100,0.618
23.4640,-0.4438,0.0953,0.4415,0.633
23.4730,-0.9079,0.1781,0.0891,0.929
23.5110,-0.8818,0.2882,-0.2991,0.975
23.5120,-0.5239,0.3604,-0.3183,0.711
23.5130,0.0308,0.1474,-0.2839,0.321
23.5140,-0.2493,0.1519,-0.2142,0.362
23.5140,-0.7169,0.2356,-0.1562,0.771
23.5220,-0.5612,0.3081,-0.1827,0.666
23.5340,-0.1444,0.4557,-0.2220,0.527
23.5380,-0.0022,0.6235,-0.2685,0.679
23.5470,-0.4974,0.9360,-0.1612,1.072
23.5580,-1.8042,1.1344,-0.0057,2.131
23.5620,-2.1528,1.0175,0.3334,2.404
23.5730,-1.4787,1.4990,0.4072,2.145
23.5840,-2.0777,2.8616,-0.3722,3.556
23.5870,-3.4857,3.3858,-0.5732,4.893
23.5980,-3.5198,2.6625,0.5732,4.450
23.6070,-2.6896,2.4726,0.7521,3.730
23.6270,-2.9514,2.8059,0.6434,4.123
23.6290,-3.9770,3.2680,0.6869,5.193
23.6980,-4.5262,3.6438,0.2575,5.816
23.6990,-3.6654,3.4203,-0.6542,5.056
23.7020,-4.1923,4.1187,1.0130,5.964
23.7040,-6.0953,4.4972,1.3324,7.691
23.7050,-7.0423,4.2608,0.3553,8.239
23.7100,-7.3760,3.7586,0.4269,8.289
23.7140,-7.6356,3.3010,0.3627,8.327
23.7150,-8.1681,3.2355,0.0406,8.786
23.7150,-9.0958,3.3246,-0.4489,9.695
23.7160,-10.2723,3.0957,-0.5866,10.745
23.7190,-11.4647,2.6970,-0.2412,11.780
23.7240,-12.6472,2.9343,0.0620,12.983
23.7570,-14.5816,4.4302,-0.2783,15.242
23.7590,-17.5742,6.4205,-1.4791,18.769
23.7620,-18.1307,6.6180,-0.2586,19.302
23.7640,-14.6921,5.8921,-0.1521,15.830
23.7650,-7.2482,6.2796,-2.5617,9.926
23.8320,2.4261,8.4219,-5.3139,10.249
23.8340,7.9062,9.0811,-5.6010,13.279
23.8350,6.8769,8.7256,-5.9738,12.614
23.8370,8.1494,9.6117,-7.1306,14.479
23.8390,12.7070,9.9033,-7.6365,17.829
23.8410,16.9525,9.7875,-7.4500,20.945
23.8420,19.1781,9.0479,-5.2372,21.842
23.8450,20.1515,8.1491,-0.9871,21.759
23.8470,12.2105,3.2234,4.9093,13.549
23.8490,-4.4184,-0.2398,9.8405,10.790
23.8540,-2.2807,4.8752,5.3822,7.612
23.8630,-9.3665,4.6434,0.6586,10.475
23.8910,-21.2235,3.3059,-1.2170,21.514
23.8970,-25.7581,4.1047,-3.4367,26.308
23.8990,-19.8284,4.9648,-5.7325,21.229
23.9030,-13.1025,4.1261,-5.4369,14.774
23.9050,-10.3837,2.0842,-2.2058,10.818
24.0010,-10.0598,-0.2861,1.5278,10.179
24.0020,-9.5519,-2.3199,3.5441,10.449
24.0050,-9.3060,-3.4149,3.9112,10.656
24.0070,-9.4890,-2.9970,2.5010,10.260
24.0090,-9.0965,-1.8371,-0.0919,9.281
24.0110,-8.1135,-0.8045,-1.8868,8.369
24.0120,-6.9638,-0.3775,-2.0899,7.280
24.0140,-6.1606,-0.6625,-1.2535,6.322
24.0160,-5.7307,-1.0944,-0.1364,5.836
24.0180,-6.0106,-1.1561,0.2551,6.126
24.0200,-6.4612,-0.8059,-0.0094,6.511
24.0210,-6.1971,-0.0402,-0.6187,6.228
24.0230,-5.0410,0.7690,-1.0322,5.203
24.0240,-3.6285,1.3518,-1.2236,4.061
24.0320,-1.9576,1.7309,-1.0784,2.827
24.0380,-0.5701,1.9187,-0.6663,2.110
24.0480,0.1048,2.0510,-0.1585,2.060
24.0660,0.4944,2.4268,0.1309,2.480
24.0670,1.0273,3.1753,-0.1701,3.342
24.0980,1.7615,4.1703,-0.9575,4.627
24.0990,2.5266,5.0528,-1.7518,5.915
24.1010,3.3064,5.5284,-2.3700,6.864
24.1030,3.9382,5.6324,-2.3429,7.261
24.1040,4.4530,5.3687,-1.6952,7.178
24.1820,5.4546,4.8586,-1.1522,7.395
24.1840,6.7243,4.6278,-1.0466,8.230
24.1870,7.8913,4.8917,-1.1136,9.351
24.1900,9.3293,5.1912,-1.2027,10.744
24.1920,11.3646,5.1982,-1.0329,12.540
24.1950,13.2514,4.8280,-0.6171,14.117
24.1970,14.3828,4.2954,0.3393,15.014
24.2000,15.4835,3.6136,1.1010,15.938
24.2020,16.5183,2.7969,0.5521,16.762
24.2040,17.2283,2.0543,-0.0826,17.351
24.2060,18.2200,1.3310,-0.3199,18.271
24.2080,19.3207,0.1779,0.3388,19.324
24.2250,19.6287,-1.3493,1.4656,19.730
24.2270,19.2736,-2.5723,2.3474,19.586
24.2290,18.8940,-2.9361,2.3764,19.268
24.3130,18.3222,-2.7685,1.6066,18.600
24.3150,17.1699,-2.3626,0.5235,17.340
24.3170,15.7717,-1.9824,0.1646,15.897
24.3190,14.7403,-1.8882,0.9766,14.893
24.3210,8.7286,2.6682,2.6826,9.513
24.3230,-10.7743,19.2216,-9.2763,23.908
24.3250,8.6675,0.4669,-12.1134,14.902
24.3270,6.6755,-0.8469,7.8422,10.333
24.3290,-1.3631,2.2577,-2.0906,3.365
24.3310,-11.9665,-1.6135,-15.7062,19.811
24.3330,-18.3192,-1.1094,12.9370,22.454
24.3360,-2.3470,-3.4233,20.1664,20.589
24.3380,24.5482,1.0624,13.0511,27.822
24.3440,37.5774,5.1828,10.4463,39.345
24.3700,27.5562,2.4010,7.3382,28.617
24.3720,8.0039,0.4271,2.7258,8.466
24.3750,-7.6931,-0.8606,-0.3209,7.748
24.3790,-2.8402,-0.4059,-1.8276,3.402
24.3870,9.1035,1.0609,-1.2267,9.247
24.4480,8.9436,0.8368,0.2536,8.986
24.4490,1.0374,0.3118,-0.3521,1.139
24.4500,-2.0078,0.2502,-2.4155,3.151
24.4510,0.3342,0.5168,-3.1284,3.188
24.4510,0.8546,0.4480,-2.1221,2.331
24.4520,-0.4037,0.2632,-0.7012,0.851
24.4530,-0.3344,0.2349,-0.1045,0.422
24.4550,-0.3308,0.2334,-0.0819,0.413
24.4630,-0.8034,0.2289,-0.1022,0.842
24.4680,-1.0492,0.2232,0.0870,1.076
24.4900,-0.4217,0.1172,0.6235,0.762
24.4910,0.3185,0.1287,0.8373,0.905
24.4940,-0.0368,0.1175,0.5808,0.594
24.5020,-0.5226,0.1568,0.4899,0.733
24.5350,-0.1574,0.1216,0.5729,0.606
24.5370,0.0840,0.0705,0.6014,0.611
24.5380,-0.3574,0.0475,0.6454,0.739
24.5380,-0.3952,-0.0033,0.4611,0.607
24.5430,0.2322,-0.1323,0.0069,0.267
24.5540,-0.3532,0.1610,-0.1826,0.429
24.5580,-1.9147,0.3813,-0.4017,1.993
24.5670,-1.6305,0.2723,-0.5712,1.749
24.5970,-0.5118,0.3101,-0.2732,0.658
24.5990,-0.0274,0.0427,-0.0553,0.075
24.6010,-0.1371,0.0439,0.4188,0.443
24.6020,-0.6196,0.1003,0.4814,0.791
24.6080,-0.7361,0.1794,0.4227,0.868
24.6470,-0.4837,0.1223,0.2577,0.561
24.6480,-0.2803,0.1298,0.0820,0.320
24.6490,-0.6264,0.2800,-0.2520,0.731
24.6500,-0.1325,0.2600,-0.3782,0.478
24.6550,0.0675,0.2911,-0.2328,0.379
24.6600,-0.4327,0.3567,-0.1611,0.583
24.6680,-0.5606,0.2907,-0.1847,0.658
24.6780,-0.8233,0.4735,-0.1412,0.960
24.6830,-0.9074,0.5669,0.0114,1.070
24.7030,-0.5536,0.4173,0.1048,0.701
24.7040,0.1307,0.3202,0.1829,0.391
24.7080,-0.3015,0.4091,0.1118,0.520
24.7430,-1.5632,0.9492,0.0576,1.830
24.7440,-2.4579,1.4426,0.0824,2.851
24.7460,-2.5330,1.6163,0.3236,3.022
24.7470,-1.8692,1.7229,0.6561,2.625
24.7550,-1.9376,2.0698,0.6198,2.902
24.7580,-2.4260,2.5364,0.0629,3.510
24.7680,-2.7955,2.8350,0.3565,3.997
24.7780,-2.3670,2.7856,0.0740,3.656
24.7830,-1.5660,2.9380,0.1254,3.332
24.8090,-3.2548,3.2845,0.8009,4.693
24.8120,-4.6926,3.3541,-0.1330,5.770
24.8190,-5.3013,3.5513,-0.6267,6.412
24.8210,-5.5857,3.6125,-0.6763,6.686
24.9140,-5.6889,3.5412,-0.7308,6.741
24.9150,-5.7330,3.6947,-0.2159,6.824
24.9170,-5.8203,3.7392,0.1954,6.921
24.9180,-6.2604,3.4218,-0.0549,7.135
24.9200,-7.4186,3.0130,-0.2086,8.010
24.9220,-9.2749,3.0706,0.3772,9.777
24.9230,-11.4472,3.5321,0.6604,11.998
24.9400,-13.9670,4.7363,-0.5657,14.759
24.9420,-15.7309,5.8505,-1.8747,16.888
24.9440,-15.8273,5.8168,-1.5988,16.938
24.9460,-14.5117,5.2387,-0.9079,15.455
24.9480,-11.0740,5.9612,-1.9093,12.721
24.9500,-3.2590,8.1616,-3.6751,9.526
24.9520,5.0771,9.5668,-5.0297,11.941
24.9540,5.0292,8.8725,-5.1425,11.422
24.9580,2.6295,6.8826,-4.7953,8.791
24.9600,7.3758,7.8073,-4.4236,11.616
24.9690,13.3692,8.5693,-5.7131,16.876
24.9860,15.5090,8.4677,-7.2746,19.109
24.9890,17.3510,8.3176,-3.4244,19.544
25.0780,19.2993,6.5244,1.7722,20.449
25.0800,8.2707,2.5609,5.3066,10.155
25.0820,-7.6530,0.4266,8.1119,11.160
25.0850,-3.5313,4.9985,2.8763,6.762
25.0870,-8.0834,4.5868,-0.8412,9.332
25.0880,-17.7767,2.7777,-1.8434,18.087
25.0900,-21.3459,3.2536,-3.1093,21.815
25.0950,-19.7619,3.7339,-3.9064,20.487
25.0970,-17.1724,2.4974,-3.9163,17.790
25.0990,-14.3249,1.1621,-2.7001,14.623
25.1010,-11.1912,0.2501,-0.8978,11.230
25.1020,-8.7593,-0.6052,0.2957,8.785
25.1040,-7.5784,-1.3946,0.9031,7.758
25.1060,-7.2062,-1.8724,0.8627,7.495
25.1120,-7.3040,-1.9635,0.6948,7.595
25.1190,-7.5648,-2.0109,0.0548,7.828
25.1230,-7.6552,-2.0038,-0.5674,7.933
25.1660,-7.6770,-1.9011,-0.6199,7.933
25.1670,-7.8015,-1.7978,-0.6480,8.032
25.1690,-8.3545,-1.4480,-0.7639,8.513
25.1710,-8.6898,-0.7574,-0.7036,8.751
25.1730,-7.6178,-0.0488,-0.5836,7.640
25.1740,-5.8819,0.7540,-0.5397,5.955
25.2440,-4.5527,1.4179,-0.5807,4.804
25.2460,-3.3872,1.9648,-0.5689,3.957
25.2480,-1.9770,2.3865,-0.4863,3.137
25.2500,-0.8669,2.5969,-0.3123,2.756
25.2520,-0.4097,2.6967,0.0792,2.729
25.2540,-0.2137,2.9778,0.1334,2.988
25.2550,-0.1360,3.5107,-0.3216,3.528
25.2580,-0.0242,4.0611,-0.8158,4.142
25.2600,0.1736,4.4099,-1.1056,4.550
25.2610,0.3460,4.4634,-0.7566,4.540
25.2690,0.9508,4.3594,0.1268,4.464
25.2900,2.2116,4.4035,0.3253,4.938
25.2990,3.5675,4.9909,-0.7246,6.177
25.3000,4.7678,5.9557,-1.6140,7.798
25.3020,6.0622,6.5593,-1.0557,8.994
25.3090,8.1719,6.6226,-0.1877,10.520
25.3750,10.8191,6.3095,0.7203,12.545
25.3790,12.4156,5.7520,1.0638,13.725
25.3810,12.5666,5.2565,1.4057,13.694
25.3830,12.4451,4.7342,2.2608,13.506
25.3850,13.5299,4.1968,2.5893,14.401
25.3870,15.7611,4.0449,2.2346,16.425
25.3890,18.3587,3.9511,2.0337,18.889
25.3910,20.2579,3.1690,1.5199,20.561
25.3930,20.5117,1.8841,1.2067,20.633
25.3970,19.6699,0.4114,1.5260,19.733
25.4010,19.2616,-1.1057,2.1180,19.409
25.4090,18.8831,-2.1828,2.7562,19.208
25.4440,18.2070,-2.6162,3.1193,18.657
25.4460,17.0467,-2.6072,3.2186,17.543
25.4470,9.5418,2.5682,2.9573,10.314
25.4510,-12.4873,21.6001,-10.6195,27.116
25.4530,14.3174,-2.1814,-8.4688,16.777
25.5390,13.4841,-1.2913,13.1201,18.858
25.5410,5.2071,5.5442,3.3901,8.327
25.5430,-10.7566,-0.0058,-5.2852,11.985
25.5450,-22.6288,-2.5335,7.4917,23.971
25.5470,-6.7240,-5.3703,21.2280,22.906
25.5480,24.1776,2.6040,11.0196,26.698
25.5510,36.2412,4.8614,5.9361,37.044
25.5520,21.9026,2.2232,3.2197,22.249
25.5550,-2.4527,-1.7035,5.1617,5.963
25.5570,-10.4975,-2.7005,4.5769,11.766
25.5590,5.0134,0.6085,2.1901,5.505
25.5600,16.8104,2.3348,1.0334,17.003
25.5620,14.6994,1.6770,-0.0500,14.795
25.5660,1.5301,0.6038,-1.6014,2.296
25.5850,-3.3180,0.1451,-3.6365,4.925
25.5870,0.5306,0.5823,-3.2661,3.360
25.5930,2.4855,0.5261,-1.1291,2.780
25.6920,0.8789,0.2565,-0.1795,0.933
25.6940,-0.4397,0.1816,-0.3212,0.574
25.6960,-0.5316,0.1932,-0.1388,0.582
25.6970,-0.1756,0.1418,0.5582,0.602
25.6990,-0.1784,0.0991,0.9269,0.949
25.7000,-0.3968,0.1017,0.7451,0.850
25.7010,-0.7908,0.1319,0.4074,0.899
25.7030,-0.8437,0.1063,0.3214,0.909
25.7040,0.1993,0.0834,0.2662,0.343
25.7060,0.4634,0.0993,-0.1118,0.487
25.7070,-0.1618,0.0967,-0.4626,0.499
25.7080,-0.1793,0.1207,-0.5892,0.628
25.7100,0.0659,0.1061,-0.5342,0.549
25.7130,-0.3601,0.1202,-0.4143,0.562
25.7240,-1.0370,0.0859,-0.2536,1.071
25.7250,-1.0241,0.1482,0.1062,1.040
25.7330,-0.4533,-0.0303,0.4720,0.655
25.7390,-0.3945,0.0995,0.6404,0.759
25.7500,-0.6969,0.0647,0.5767,0.907
25.7700,-0.6199,0.0242,0.4315,0.756
25.7720,-0.4607,0.0300,0.0028,0.462
25.7740,-0.8224,0.0118,-0.4019,0.915
25.8320,-0.9406,0.0677,-0.2798,0.984
25.8330,0.0166,0.1003,-0.2478,0.268
25.8350,0.0829,0.0174,-0.2745,0.287
25.8360,-0.5490,0.2903,0.1263,0.634
25.8370,-0.4876,0.1233,0.2542,0.564
25.8380,-0.2220,0.3228,0.2743,0.478
25.8390,-0.6052,0.1652,0.1879,0.655
25.8410,-0.5720,0.3285,0.0811,0.665
25.8490,-0.4625,0.2287,-0.1415,0.535
25.8670,-0.4440,0.2735,-0.2781,0.591
25.8680,-0.8171,0.4032,-0.4505,1.016
25.9270,-0.8333,0.4427,-0.3878,1.020
25.9270,-0.1817,0.3785,-0.1289,0.439
25.9280,0.1574,0.5188,0.0040,0.542
25.9290,-0.3491,0.5353,0.0604,0.642
25.9300,-1.1733,0.8120,0.3276,1.464
25.9310,-1.8471,0.8458,0.5601,2.107
25.9310,-1.7742,0.8283,0.3766,1.994
25.9320,-0.9151,0.9021,0.3543,1.333
25.9390,-1.2241,1.5787,1.3765,2.426
25.9480,-2.2493,2.1677,2.4984,4.000
25.9590,-2.7158,2.6396,0.4101,3.809
25.9650,-3.1019,2.7617,-0.2066,4.158
26.0400,-3.5503,3.1818,-0.2279,4.773
26.0410,-4.2692,3.7437,-0.7505,5.728
26.0420,-4.7485,4.0933,-0.6853,6.307
26.0430,-5.1355,4.2337,-0.1887,6.658
26.0440,-4.9955,4.2061,0.4044,6.543
26.0460,-4.8485,3.9475,0.9857,6.330
26.0460,-5.1361,3.3325,1.2674,6.252
26.0470,-5.5592,3.1871,1.4580,6.572
26.0480,-6.3403,3.2656,0.8934,7.188
26.0490,-7.3843,3.3422,0.0626,8.106
26.0530,-8.7046,3.7219,-0.4176,9.476
26.0640,-11.0103,4.4529,0.0455,11.877
26.0690,-14.2775,6.0067,-0.1339,15.490
26.0840,-17.7246,7.6112,-1.8771,19.381
26.1650,-19.0485,6.9626,-1.4621,20.334
26.1670,-18.5427,4.7622,0.4206,19.149
26.1680,-17.0226,3.6371,0.7040,17.421
26.1700,-11.5277,4.2948,0.2730,12.305
26.1720,-1.5798,6.0860,-1.8249,6.547
26.1740,7.1308,8.1970,-5.7764,12.305
26.1750,10.5860,9.0249,-6.2472,15.249
26.1770,11.3189,9.4095,-4.7947,15.480
26.1790,11.3744,9.1296,-4.7105,15.327
26.1810,12.2239,8.0580,-5.3820,15.599
26.1820,16.4845,8.3461,-4.6109,19.044
26.1840,19.9164,8.6143,-1.7065,21.766
26.1890,17.0173,5.9112,1.9626,18.121
26.2040,-5.2195,-0.8778,7.2982,9.015
26.2570,-4.0097,3.2934,8.8393,10.250
26.2610,-3.3070,4.5627,4.4711,7.193
26.2650,-12.9212,1.3805,1.9167,13.135
26.2700,-20.1559,1.2142,-0.5005,20.199
26.2740,-20.1582,3.0965,-2.4755,20.544
26.2760,-17.1110,3.6928,-4.5015,18.074
26.2770,-14.2216,2.5539,-5.1504,15.340
26.2790,-11.8161,1.2952,-3.6082,12.422
26.2800,-9.9870,0.0962,-1.5294,10.104
26.2820,-8.8231,-1.2798,0.1787,8.917
26.2900,-7.9372,-2.5916,1.2207,8.438
26.2980,-6.8581,-3.3396,1.0154,7.695
26.3050,-6.3786,-3.4226,-0.2371,7.243
26.3150,-7.2660,-3.0904,-1.9058,8.123
26.3190,-9.4565,-2.4120,-3.0244,10.217
26.3300,-11.4443,-1.6553,-3.2129,12.001
26.3480,-11.9010,-1.1804,-2.7668,12.275
26.3510,-9.9176,-0.8634,-1.9847,10.151
26.3550,-7.8151,-0.4182,-1.2048,7.918
26.4200,-6.0800,0.1928,-0.8444,6.141
26.4210,-4.2339,0.8721,-0.7185,4.382
26.4210,-2.7770,1.5553,-0.8689,3.299
26.4220,-1.8657,2.0202,-0.5072,2.796
26.4230,-0.9339,2.3944,0.0501,2.571
26.4240,0.2771,2.9655,0.0870,2.980
26.4250,1.3836,3.6638,-0.1421,3.919
26.4250,2.1656,4.3361,-0.5645,4.880
26.4290,2.9493,4.9503,-0.9391,5.838
26.4350,3.5075,5.4640,-1.0832,6.583
26.4440,3.4114,5.8929,-0.8531,6.862
26.4540,3.1188,6.2497,-0.6220,7.012
26.4590,2.9027,6.5582,-1.0004,7.241
26.4700,2.9699,6.7491,-0.8097,7.418
26.4940,4.1230,6.3913,0.2892,7.611
26.4960,6.9338,5.7468,0.7143,9.034
26.4970,10.2445,5.3731,0.7467,11.592
26.5060,12.6621,4.7131,0.8011,13.535
26.5100,14.2662,3.8999,0.8858,14.816
26.5360,15.5156,3.1576,1.4001,15.895
26.5370,16.5737,2.2566,1.8642,16.830
26.5380,16.7927,1.5691,1.5690,16.939
26.5450,15.5270,1.6373,0.5838,15.624
26.5540,14.2368,1.8697,-0.4990,14.368
26.5590,14.3713,1.6030,-1.2649,14.516
26.5690,15.8909,0.7816,-1.1454,15.951
26.5800,17.5609,-0.4617,-0.6329,17.578
26.5840,18.1760,-1.9185,-0.1274,18.277
26.5950,16.9541,-2.9935,0.4184,17.221
26.6040,15.2038,-3.2867,0.5343,15.564
26.6090,14.3168,-2.7659,0.1817,14.583
26.6350,13.8264,-2.1229,0.2494,13.991
26.6410,4.2971,5.2805,-0.4460,6.823
26.6450,-8.7904,17.3323,-13.0114,23.388
26.6490,13.1023,-0.2191,-9.6836,16.294
26.6750,8.0212,-0.3712,7.8408,11.223
26.6770,2.5089,0.6954,-0.4880,2.649
26.6780,-9.1993,-2.1587,5.1568,10.765
26.6800,-14.3175,-1.0738,9.2320,17.070
26.6840,-0.5212,-1.2626,14.4678,14.532
26.6960,18.3664,1.7999,9.4895,20.751
26.7050,26.8552,2.6822,6.7474,27.819
26.7090,20.1911,1.8168,2.7390,20.457
26.7190,8.0525,0.9625,0.8172,8.151
26.7290,0.9533,0.4957,-1.7509,2.054
26.7350,5.1957,0.9910,-1.9110,5.624
26.7440,8.7006,1.1249,-0.2504,8.777
26.7490,4.5226,0.5391,0.5778,4.591
26.7650,0.5009,0.3849,-1.4794,1.609
26.7700,-0.3688,0.3815,-2.2352,2.297
26.8450,0.2141,0.3303,-1.5103,1.561
26.8470,0.6811,0.3136,-0.5276,0.917
26.8490,-0.0656,0.1632,0.1871,0.257
26.8500,-0.4044,0.1051,0.4658,0.626
26.8510,-0.1580,0.1304,0.5045,0.545
26.8510,-0.3084,0.1109,0.5356,0.628
26.8520,-0.5592,0.0832,0.6419,0.855
26.8520,-0.5073,0.1119,0.5461,0.754
26.8530,-0.3566,0.1302,0.0775,0.387
26.8540,-0.1243,0.1357,0.0877,0.204
26.8600,0.5487,0.0926,0.0324,0.557
26.8700,0.6564,0.0919,-0.1569,0.681
26.8750,-0.1079,0.1123,-0.2408,0.287
26.8840,-0.5317,0.1952,-0.1110,0.577
26.9040,-0.7303,0.0653,0.0399,0.734
26.9060,-0.8428,0.1621,0.0053,0.858
26.9140,-0.9684,0.1996,-0.1447,0.999
26.9910,-1.0688,0.2120,-0.0467,1.091
26.9930,-0.7757,0.1985,0.1972,0.825
26.9950,0.0123,0.0658,0.1625,0.176
26.9960,-0.0320,0.0469,0.0849,0.102
26.9980,-0.9903,0.1543,0.0809,1.005
26.9990,-0.8579,0.1299,0.0288,0.868
27.0010,0.2595,-0.0750,-0.4014,0.484
27.0020,0.5294,0.1199,-0.3360,0.638
27.0040,-0.6499,0.2727,-0.2717,0.755
27.0050,-0.8644,0.0542,-0.3040,0.918
27.0060,-0.3773,0.3037,-0.1868,0.519
27.0100,-0.4768,0.3891,-0.2682,0.671
27.0200,-0.8555,0.5961,-0.2682,1.077
27.0250,-0.8517,0.6328,-0.1059,1.066
27.0460,-0.1242,0.4899,-0.0261,0.506
27.0480,0.2455,0.3467,0.0905,0.434
27.1450,-0.3603,0.4169,0.0815,0.557
27.1460,-1.5789,0.6709,0.2829,1.739
27.1480,-1.6608,0.4417,0.0769,1.720
27.1490,-0.8892,0.4882,0.0981,1.019
27.1500,-1.1828,1.4035,1.0673,2.123
27.1520,-1.7711,1.5475,1.7666,2.942
27.1550,-2.3880,2.1576,1.0836,3.396
27.1560,-3.1022,3.0441,-0.3269,4.359
27.1580,-3.3343,3.4543,-0.6097,4.840
27.1590,-2.9154,3.2334,-0.1139,4.355
27.1610,-2.3797,2.7956,-0.8590,3.770
27.1640,-2.1898,3.1685,-0.7866,3.931
27.1660,-4.3082,3.9046,-0.0071,5.814
27.1670,-5.9614,4.4074,-0.8726,7.465
27.1690,-6.4223,4.5965,-0.8038,7.939
27.1760,-5.8831,4.2942,-0.0790,7.284
27.1850,-5.8980,3.8685,0.4711,7.069
27.1900,-6.6723,3.6968,0.6968,7.660
27.2120,-7.7524,3.7497,0.2558,8.615
27.2150,-8.8309,3.9658,-0.4950,9.693
27.2170,-10.1342,4.0104,-0.7937,10.928
27.2260,-11.7010,3.4454,-0.2177,12.200
27.2960,-13.2090,2.6809,0.7547,13.499
