time,ax,ay,az,aT
0.0040,-0.2044,-0.0292,-0.2344,0.312
0.0070,-0.1275,-0.0180,-0.3671,0.389
0.0180,-0.0125,-0.0635,-0.4983,0.502
0.0220,0.1416,-0.1067,-0.5698,0.597
0.0290,0.1233,-0.1084,-0.5632,0.587
0.0380,0.2243,-0.1654,-0.6153,0.675
0.0460,0.1724,-0.1422,-0.5120,0.559
0.0610,0.1244,-0.1184,-0.4487,0.480
0.0630,0.1186,-0.1336,-0.4052,0.443
0.0740,0.1160,-0.1297,-0.3037,0.350
0.0800,0.1154,-0.1262,-0.2999,0.345
0.0880,0.1169,-0.0062,-0.1799,0.215
0.0970,0.0038,-0.0032,-0.0810,0.081
0.1050,-0.1084,0.0190,-0.1190,0.162
0.1140,-0.2401,0.0216,-0.0986,0.260
0.1220,-0.1984,0.0053,-0.0984,0.222
0.1300,-0.1412,0.0089,0.0172,0.143
0.1390,-0.1440,0.0133,0.0148,0.145
0.1470,-0.1656,-0.0010,0.1475,0.222
0.1550,-0.2442,0.0225,0.2790,0.371
0.1640,-0.1073,0.0633,0.2740,0.301
0.1720,-0.1245,0.1020,0.1540,0.223
0.1900,-0.2169,0.0811,0.1717,0.288
0.1910,-0.2104,0.0792,0.3443,0.411
0.2020,-0.2028,0.0763,0.3409,0.404
0.2070,-0.2137,0.0915,0.3381,0.410
0.2160,-0.1870,0.0663,0.3745,0.424
0.2230,-0.2016,0.0786,0.2751,0.350
0.2310,-0.2776,0.0711,0.0800,0.297
0.2390,-0.4916,0.0062,-0.0551,0.495
0.2480,-0.7621,0.0393,-0.1114,0.771
0.2560,-0.7581,0.0345,-0.1093,0.767
0.2650,-0.8497,0.1864,-0.0884,0.874
0.2730,-1.0555,0.2017,0.0481,1.076
0.2810,-1.2207,0.2951,0.2208,1.275
0.2900,-1.0796,0.3500,0.1384,1.143
0.2980,-0.9693,0.3864,0.1130,1.050
0.3070,-1.0030,0.3876,-0.0113,1.075
0.3150,-1.0229,0.3929,-0.0200,1.096
0.3250,-1.0656,0.3842,0.0850,1.136
0.3350,-1.1817,0.4780,0.4386,1.348
0.3410,-1.2094,0.4196,0.9808,1.613
0.3490,-1.2062,0.3247,1.5362,1.980
0.3600,-1.4012,0.2477,1.8355,2.322
0.3650,-1.3751,0.2650,1.8193,2.296
0.3740,-1.4308,0.3131,1.8281,2.342
0.3820,-1.4814,0.4093,1.5520,2.184
0.3910,-1.4913,0.5336,1.2463,2.015
0.3990,-1.0516,0.4945,1.1638,1.645
0.4080,-0.8308,0.1603,1.6138,1.822
0.4160,-0.3834,-0.1347,2.7091,2.739
0.4250,-0.2272,-0.1575,2.7340,2.748
0.4330,0.6884,-0.6150,4.1327,4.235
0.4410,1.6191,-1.0217,5.1848,5.527
0.4490,2.4819,-1.2509,5.7010,6.342
0.4580,2.8951,-1.2297,5.6254,6.445
0.4680,2.7866,-1.1970,5.0562,5.896
0.4770,2.1915,-1.3802,4.4285,5.130
0.4840,2.3390,-1.5536,4.5385,5.337
0.4940,1.9453,-1.8674,3.9988,4.823
0.5000,2.1606,-2.2995,4.1662,5.226
0.5080,2.4433,-2.5485,4.0247,5.354
0.5170,2.6319,-2.6226,3.2302,4.923
0.5240,2.8245,-2.4211,1.8954,4.175
0.5330,2.8732,-1.8854,0.1167,3.439
0.5410,2.9388,-2.1799,0.3807,3.679
0.5500,2.4261,-1.7626,-0.9704,3.152
0.5580,1.9785,-1.8737,-1.6297,3.175
0.5680,1.7150,-2.3337,-1.5537,3.287
0.5750,1.6050,-2.9249,-1.0764,3.506
0.5840,1.2444,-3.2192,-0.3732,3.471
0.5920,1.2151,-3.0897,0.1485,3.323
0.6000,1.0739,-3.3050,0.4086,3.499
0.6090,1.2187,-3.0081,0.6564,3.311
0.6200,1.4547,-2.9080,0.4496,3.283
0.6270,1.4451,-2.9213,0.1078,3.261
0.6340,1.1075,-3.1384,0.0227,3.328
0.6430,0.6424,-3.5027,0.0427,3.561
0.6510,0.5522,-3.6455,0.2454,3.695
0.6630,-0.0885,-3.9595,0.5304,3.996
0.6680,-0.8947,-4.2121,0.4866,4.334
0.6760,-1.3099,-4.1913,0.5232,4.422
0.6840,-1.2605,-4.0515,0.8679,4.331
0.6940,-1.0840,-3.9286,1.1842,4.244
0.7010,-0.8958,-3.8431,0.9327,4.055
0.7100,-1.1178,-3.9689,1.1370,4.277
0.7180,-0.5254,-2.9938,1.0558,3.218
0.7260,0.3225,-1.6662,0.5681,1.790
0.7340,-0.3271,-1.5650,-0.6403,1.722
0.7430,-0.7453,-0.5187,-2.0437,2.236
0.7510,-0.1762,-0.8894,-1.3517,1.628
0.7630,0.2094,-2.1817,-1.8112,2.843
0.7680,-0.0361,-2.2461,-1.5109,2.707
0.7770,1.0248,-2.6874,-2.5231,3.826
0.7890,1.8150,-3.0710,-4.3075,5.593
0.7930,2.0499,-3.4553,-5.9125,7.148
0.8050,1.9505,-3.5093,-6.8585,7.947
0.8100,2.2171,-3.3552,-6.0525,7.267
0.8190,2.4004,-3.1949,-4.3161,5.882
0.8270,2.2298,-3.1690,-4.2036,5.717
0.8610,1.8036,-3.0056,-2.2425,4.161
0.8620,0.8069,-3.1550,-0.3320,3.273
0.8630,-0.2013,-3.3025,0.6821,3.378
0.8650,-0.9153,-3.0176,0.8023,3.254
0.8730,-0.8327,-2.0079,0.3231,2.198
0.8770,-0.9740,-1.9739,0.4041,2.238
0.8890,-0.1417,-0.8222,-1.1249,1.401
0.8940,1.0848,0.2497,-2.4748,2.714
0.9020,1.7583,0.7113,-2.8485,3.422
0.9100,2.2940,0.7968,-2.0688,3.190
0.9190,2.2436,0.2332,-1.6233,2.779
0.9280,1.6732,-0.1955,-1.4152,2.200
0.9360,1.6295,-0.1748,-1.3175,2.103
0.9450,0.9267,-0.6802,-1.4282,1.833
0.9530,0.1277,-1.2397,-2.0816,2.426
0.9620,-0.2276,-1.5201,-2.6564,3.069
0.9690,-0.3599,-1.8163,-2.7325,3.301
0.9780,-0.5015,-2.0721,-2.4967,3.283
0.9860,-0.3222,-1.8191,-2.7900,3.346
0.9950,-0.4089,-1.7821,-2.7517,3.304
1.0030,0.3021,-1.0837,-2.8898,3.101
1.0120,0.8998,-0.4516,-2.5565,2.748
1.0210,0.8232,-0.1412,-2.1252,2.283
1.0290,-0.0653,-0.1876,-1.4721,1.485
1.0370,-0.8106,-0.1970,-0.9104,1.235
1.0460,-1.1497,-0.1859,-0.5954,1.308
1.0540,-1.2258,-0.1705,-0.6562,1.401
1.0620,-1.2532,-0.1309,-0.1499,1.269
1.0710,-1.2956,-0.3182,0.1642,1.344
1.0790,-1.4717,-0.5536,0.5262,1.658
1.0920,-1.3105,-0.6611,0.4287,1.529
1.0950,-0.6540,-0.4074,0.1088,0.778
1.1070,0.1680,0.1655,0.0342,0.238
1.1120,0.0088,0.2331,0.0259,0.235
1.1210,0.7729,0.9477,0.2404,1.246
1.1290,1.7981,1.6000,0.3825,2.437
1.1380,2.8529,2.0509,0.4714,3.545
1.1450,3.4957,2.1206,0.5051,4.120
1.1580,3.6811,1.8423,0.2119,4.122
1.1630,3.6185,1.8658,0.2407,4.078
1.1720,2.8925,1.2154,0.0797,3.139
1.1800,1.7159,0.3448,0.2527,1.768
1.1880,0.6850,-0.4268,0.6786,1.054
1.1970,-0.0520,-0.7834,1.1013,1.352
1.2050,-0.4811,-0.8607,1.0333,1.428
1.2130,-0.4699,-0.8341,0.4755,1.069
1.2220,-0.5079,-0.8020,0.5029,1.074
1.2300,-0.3559,-0.7867,0.2532,0.900
1.2390,-0.1257,-0.5766,0.1782,0.616
1.2490,0.0908,-0.2139,0.8298,0.862
1.2550,0.5133,0.1421,1.5433,1.633
1.2640,0.4765,0.2563,1.9249,2.000
1.2720,0.0369,0.3068,2.0886,2.111
1.2830,0.0330,0.3162,2.1176,2.141
1.2880,-0.6361,0.3096,1.9437,2.068
1.3060,-0.4865,0.5262,1.6543,1.803
1.3070,-0.1831,0.7697,1.3123,1.532
1.3140,-0.2075,0.6852,1.3501,1.528
1.3220,-0.1236,0.4466,1.4297,1.503
1.3300,0.1066,0.1917,1.1371,1.158
1.3390,0.1342,0.2305,1.3085,1.335
1.3470,0.6659,-0.0055,1.1011,1.287
1.3550,1.2131,-0.2022,0.9674,1.565
1.3640,1.1788,-0.4559,0.8415,1.518
1.3720,-0.5803,-0.9977,-3.3180,3.513
1.3810,-0.5705,-0.3968,-5.6777,5.720
1.3900,-1.3539,-0.0293,-5.2245,5.397
1.3980,-1.3938,0.0214,-5.1589,5.344
1.4060,-2.3848,-0.2281,-2.8777,3.744
1.4140,-2.1890,-0.7585,-0.3200,2.339
1.4310,-1.3975,-1.0142,1.6081,2.360
1.4330,-1.0257,-1.1294,2.4493,2.886
1.4430,-1.1644,-1.2837,2.5792,3.107
1.4470,-1.2429,-1.2447,2.5265,3.079
1.4570,-1.6915,-1.4432,2.0567,3.029
1.4650,-2.4176,-1.8582,1.5147,3.405
1.4730,-3.3064,-2.1551,1.0735,4.090
1.4820,-4.4257,-2.2484,0.7318,5.018
1.4900,-6.0795,-1.8756,0.8373,6.417
1.4990,-6.9538,-1.3707,1.1123,7.174
1.5070,-7.1319,-1.2773,0.9267,7.304
1.5150,-5.3557,-0.5381,1.3848,5.558
1.5240,-2.7921,0.3397,1.4331,3.157
1.5320,-0.4232,1.2028,1.0387,1.645
1.5410,0.9143,1.9078,0.7107,2.232
1.5590,0.7919,2.3355,0.3663,2.493
1.5600,-0.0638,2.5460,0.1863,2.554
1.5700,-0.1342,2.5669,0.0156,2.570
1.5740,-1.2266,2.4037,0.0663,2.699
1.5830,-1.7448,2.2430,-0.0330,2.842
1.5900,-0.4411,2.4377,-0.8676,2.625
1.5990,1.9005,2.7286,-1.9410,3.850
1.6080,4.1356,2.9070,-3.0816,5.920
1.6160,5.3782,2.9979,-3.9067,7.292
1.6250,5.3908,2.9474,-3.9422,7.300
1.6340,5.0481,2.6470,-4.1813,7.069
1.6420,3.4249,2.0077,-3.7300,5.447
1.6510,1.7052,1.3567,-2.8485,3.586
1.6590,0.5621,0.7648,-1.5920,1.853
1.6680,0.9318,0.4856,-0.7233,1.276
1.7060,2.0297,0.1438,-0.4378,2.081
1.7090,2.0195,0.1464,-0.4383,2.072
1.7130,2.8889,-0.0842,-0.6626,2.965
1.7160,3.3111,-0.0643,-1.2089,3.525
1.7180,2.7986,-0.3424,-1.5938,3.239
1.7210,1.8350,-0.5973,-1.6890,2.564
1.7270,1.0222,-0.8823,-1.2636,1.849
1.7330,0.9992,-0.8589,-1.2560,1.820
1.7440,0.9606,-0.8969,-0.6606,1.471
1.7510,1.5608,-0.8482,-0.0023,1.776
1.7740,2.2973,-0.7993,0.3116,2.452
1.7760,3.0937,-0.4982,0.2633,3.145
1.7780,3.3878,-0.2053,0.0302,3.394
1.7840,3.1048,0.0192,-0.2273,3.113
1.7930,3.0819,0.0438,-0.1622,3.087
1.8010,2.5503,0.3251,-0.1889,2.578
1.8100,2.0371,0.4348,0.1232,2.087
1.8180,1.8536,0.3170,0.4605,1.936
1.8260,1.8425,0.1679,0.6261,1.953
1.8350,1.7520,0.0613,0.6339,1.864
1.8540,1.4457,0.0157,0.7156,1.613
1.8570,1.4134,0.0687,0.7910,1.621
1.8750,1.0677,0.2207,0.6662,1.278
1.8760,0.8574,0.5122,0.7130,1.227
1.8770,0.6444,0.7473,1.1224,1.494
1.8910,0.6815,0.9458,1.9281,2.253
1.8930,0.8114,1.2254,2.7766,3.142
1.9020,1.0516,1.5475,3.1743,3.685
1.9090,0.9899,1.6212,3.1642,3.691
1.9190,1.4710,2.0332,2.8139,3.770
1.9270,1.8708,2.2709,1.7564,3.427
1.9350,1.9791,2.4883,0.6895,3.253
1.9440,2.0168,2.5842,-0.0043,3.278
1.9510,1.8673,2.4013,-0.3062,3.057
1.9600,1.8243,2.0181,-0.3173,2.739
1.9680,1.8296,2.0784,-0.2567,2.781
1.9790,1.7820,1.6824,-0.3491,2.475
1.9890,1.6993,1.3029,-0.4989,2.199
1.9940,1.2481,0.9015,-0.6883,1.686
2.0130,0.7396,0.5198,-0.8234,1.223
2.0140,0.2303,0.2564,-0.6766,0.759
2.0200,0.2089,0.3037,-0.6453,0.743
2.0290,-0.0481,0.1909,-0.3332,0.387
2.0350,-0.3040,0.1523,0.2429,0.418
2.0470,-0.5769,0.0894,0.6373,0.864
2.0530,-0.3579,0.0626,0.6790,0.770
2.0630,0.0773,0.0734,0.3903,0.405
2.0690,0.3968,0.0032,0.0678,0.403
2.0820,0.3861,0.0267,0.0811,0.395
2.0860,0.3785,-0.1503,0.0954,0.418
2.0940,0.3729,-0.1736,-0.0660,0.417
2.1020,0.5043,-0.1388,0.1435,0.542
2.1110,0.8313,0.0521,0.2357,0.866
2.1190,1.0412,0.2219,0.3684,1.126
2.1290,0.9790,0.2104,0.1087,1.007
2.1380,0.9798,0.2112,0.1241,1.010
2.1480,0.7097,0.1891,-0.2091,0.764
2.1570,0.5390,0.1858,-0.6185,0.841
2.1620,0.3878,0.2989,-0.8544,0.985
2.1720,0.2526,0.3353,-0.8653,0.962
2.1780,0.3457,0.5524,-0.4984,0.820
2.1870,0.6693,0.8506,0.2317,1.107
2.1950,0.6587,0.8552,0.2149,1.101
2.2030,0.5117,0.7621,0.5714,1.081
2.2120,0.0914,0.4554,0.5974,0.757
2.2200,-0.1925,0.2514,0.3704,0.487
2.2280,0.0304,0.0722,0.1832,0.199
2.2370,0.2709,-0.1257,-0.1053,0.317
2.2460,0.2564,-0.1098,-0.1240,0.305
2.2550,0.4592,-0.2544,-0.3579,0.635
2.2620,0.4895,-0.5986,-0.5456,0.946
2.2730,0.2878,-0.8652,-0.7260,1.166
2.2790,0.1063,-0.9516,-0.8009,1.248
2.2870,0.1979,-0.8563,-0.7335,1.145
2.2960,0.3663,-0.6791,-0.5852,0.968
2.3040,0.3585,-0.6569,-0.5694,0.940
2.3160,0.3915,-0.3818,-0.1790,0.575
2.3210,-0.0420,-0.4259,0.0347,0.429
2.3320,-0.1583,-0.4959,0.3059,0.604
2.3380,-0.2904,-0.8278,0.5157,1.018
2.3470,-0.8291,-1.3837,0.4082,1.664
2.3540,-1.0127,-1.6097,0.1621,1.909
2.3640,-1.0007,-1.6209,0.1676,1.912
2.3710,-1.0487,-1.5758,-0.1683,1.900
2.3910,-1.1192,-1.5531,-0.4796,1.973
2.3930,-0.9202,-1.4555,-0.6165,1.829
2.3990,-0.3324,-1.0704,-0.5958,1.269
2.4060,0.0819,-0.6584,-0.5445,0.858
2.4140,-0.0649,-0.4370,-0.5349,0.694
2.4220,-0.0455,-0.5022,-0.5965,0.781
2.4300,-0.5870,-0.2587,-0.4893,0.807
2.4380,-1.0506,0.3443,-0.2580,1.135
2.4470,-0.7962,1.1914,0.1036,1.437
2.4590,-3.9920,3.9608,-0.4088,5.638
2.4640,-3.3846,5.3465,0.0889,6.328
2.4740,1.3154,2.8470,1.6770,3.556
2.4810,1.2644,2.8757,1.5430,3.500
2.4900,1.2778,2.2844,2.5246,3.637
2.4980,2.3700,0.4058,3.1176,3.937
2.5060,4.3489,-2.5232,2.9619,5.835
2.5200,3.3365,-2.0618,1.2848,4.127
2.5240,1.3222,-0.8325,-1.1721,1.953
2.5310,1.4390,-1.0165,-1.1811,2.121
2.5420,-0.3601,-0.4080,-2.6752,2.730
2.5490,-2.2929,0.1902,-3.0267,3.802
2.5610,-3.5989,0.9771,-1.9349,4.201
2.5650,-3.5281,1.6883,0.5558,3.950
2.5730,-2.2657,2.1166,1.9070,3.640
2.5820,-0.3727,2.0175,0.9401,2.257
2.5900,-0.3746,2.0116,0.8814,2.228
2.5990,1.0737,1.3153,-1.0497,1.996
2.6060,1.7965,0.0860,-2.5213,3.097
2.6180,1.9469,-1.4728,-2.7497,3.677
2.6230,1.8140,-2.7275,-1.7944,3.735
2.6340,1.8929,-2.7231,-0.8147,3.415
2.6400,2.1959,-1.8272,0.0393,2.857
2.6490,2.2370,-1.8843,-0.0675,2.926
2.6570,2.6514,-1.0217,0.0176,2.842
2.6660,3.1095,-0.3793,-0.6453,3.198
2.6740,3.4802,-0.2567,-1.2456,3.705
2.6880,3.6924,-0.7002,-1.6643,4.110
2.6930,4.0576,-1.6470,-1.8835,4.767
2.7070,4.1872,-2.7268,-1.9215,5.353
2.7090,4.3169,-2.8617,-1.9485,5.534
2.7160,4.1682,-3.6715,-1.6336,5.790
2.7240,3.8166,-4.2110,-1.3702,5.846
2.7330,2.7693,-4.7496,-0.9121,5.573
2.7420,1.0254,-5.2653,0.1916,5.368
2.7490,-1.1581,-5.7779,1.1518,6.004
2.7600,-4.8752,-3.0782,3.7023,6.852
2.7660,-4.6781,-3.2080,3.6524,6.747
2.7750,-8.9508,0.7391,4.8913,10.227
2.7830,-9.7390,2.3861,4.5579,11.014
2.8070,-8.8507,3.7271,4.6450,10.668
2.8090,-7.4297,4.3805,0.8749,8.669
2.8110,-6.6822,5.4612,-2.9315,9.114
2.8160,-6.6805,5.4585,-2.9451,9.116
2.8260,-5.1952,5.6316,0.2700,7.667
2.8330,-3.1766,3.9376,4.2773,6.625
2.8430,-0.7910,1.2867,4.0513,4.324
2.8490,0.9710,-1.0206,0.9360,1.691
2.8580,0.4503,-1.5308,-0.8728,1.819
2.8660,-1.7780,-1.1044,-0.8932,2.276
2.8750,-1.7517,-1.1255,-0.7374,2.209
2.8830,-2.4123,-0.8415,-1.3743,2.901
2.8920,-0.7796,-0.4329,-2.3953,2.556
2.9010,1.2628,0.6211,-2.6171,2.971
2.9090,2.8579,1.8315,-3.5162,4.887
2.9190,4.8272,2.5524,-4.5980,7.139
2.9260,6.0107,2.4160,-6.6959,9.317
2.9360,6.0374,2.3837,-6.7139,9.339
2.9420,6.9437,1.3996,-5.0984,8.727
2.9630,7.3464,0.5308,-0.7599,7.405
2.9650,2.6278,0.4077,2.4527,3.618
2.9670,-0.4586,-0.7254,2.0481,2.221
2.9770,-1.4055,-1.8200,1.4614,2.725
2.9850,-2.7263,-2.3861,3.8086,5.257
2.9920,-2.6019,-2.4442,3.7610,5.185
3.0010,-3.6141,-2.0973,3.7943,5.644
3.0090,-4.5923,-2.6852,2.6060,5.924
3.0180,-7.3326,-3.8672,-0.3034,8.295
3.0260,-6.5937,-4.0043,1.8996,7.945
3.0350,-3.7618,-3.0818,5.5573,7.385
3.0430,-0.5426,-1.8945,4.2947,4.725
3.0510,-0.6581,-1.8251,4.2723,4.692
3.0630,1.4482,-0.6479,2.1246,2.652
3.0670,2.3067,0.4315,0.3359,2.371
3.0800,3.2384,1.3321,-0.9692,3.633
3.0850,3.6427,1.6122,-1.3579,4.209
3.1070,4.6516,0.9229,-2.1437,5.204
3.1100,4.6664,0.9056,-2.0542,5.178
3.1120,4.4757,0.8521,-2.0298,4.988
3.1190,5.9031,0.0063,-2.3608,6.358
3.1270,5.0061,0.1951,-1.1119,5.132
3.1350,5.1819,0.6143,-0.8155,5.282
3.1440,4.2907,0.7184,-1.3690,4.561
3.1520,2.4993,0.4263,-0.6563,2.619
3.1610,2.7100,0.3251,-0.6259,2.800
3.1680,1.4474,-0.6185,0.3865,1.621
3.1780,0.0209,-1.5969,1.1903,1.992
3.1850,-1.1237,-2.1572,1.0305,2.642
3.1940,-2.4566,-1.7645,0.9336,3.165
3.2030,-3.0385,-0.8855,0.6635,3.234
3.2100,-3.6928,0.0260,0.1423,3.696
3.2250,-3.5530,-0.0121,0.1515,3.556
3.2270,-4.3610,0.8010,-0.5250,4.465
3.2470,-4.3771,0.8780,-0.9684,4.568
3.2490,-3.1401,-0.0920,-1.1631,3.350
3.2540,-1.9467,-0.7415,-0.3481,2.112
3.2630,-1.3709,-0.4287,1.2831,1.926
3.2700,-0.4490,-0.0956,2.2103,2.257
3.2770,-0.4504,-0.0949,2.2067,2.254
3.2860,0.2765,0.0231,1.9320,1.952
3.2940,0.5384,-0.1333,1.0773,1.212
3.3030,0.4524,-0.5831,0.1008,0.745
3.3110,-0.5309,-0.2101,-1.0084,1.159
3.3200,-0.8546,0.3597,-0.9084,1.298
3.3270,-0.8616,0.3640,-0.8652,1.274
3.3370,-0.7025,0.2330,-2.1073,2.233
3.3450,0.0650,-0.1331,-2.2509,2.256
3.3660,0.8955,-0.3045,-1.7548,1.993
3.3670,1.0096,-0.3417,-1.6784,1.988
3.3740,0.6058,-0.3621,-1.8790,2.007
3.3830,0.3436,-0.2866,-1.6983,1.756
3.3860,0.3535,-0.2900,-1.7075,1.768
3.3980,0.0074,-0.0981,-1.3600,1.364
3.4030,0.5572,-0.1807,-1.0903,1.238
3.4150,0.8130,-0.2053,-0.6185,1.042
3.4200,-0.3356,-0.2509,-0.3882,0.571
3.4290,0.9830,-0.0413,0.3095,1.031
3.4370,2.9452,0.1488,1.6134,3.361
3.4450,2.9661,0.1387,1.5551,3.352
3.4530,3.5523,0.0035,2.5919,4.397
3.4620,0.9689,-0.0176,2.4557,2.640
3.4710,-3.7980,-0.0138,1.2602,4.002
3.4790,-3.7163,-0.0406,0.4899,3.749
3.4870,-1.0050,0.2730,-0.2110,1.063
3.4960,0.6949,0.1574,-0.2959,0.772
3.5040,0.7038,0.1566,-0.2575,0.766
3.5200,0.1788,-0.1018,-0.5755,0.611
3.5210,0.7966,0.2651,-0.7808,1.146
3.5300,1.4561,0.3564,-0.3828,1.547
3.5410,0.1637,-0.3957,-0.6959,0.817
3.5460,-0.6791,-0.9304,-0.2307,1.175
3.5540,-0.2103,-0.8338,0.0907,0.865
3.5620,-0.2109,-0.8319,0.0925,0.863
3.5720,0.4906,-0.5165,-0.0831,0.717
3.5790,1.1199,-0.1637,-0.9190,1.458
3.5880,1.1141,0.0100,-2.0427,2.327
3.5960,0.2575,-0.0537,-2.4038,2.418
3.6050,-1.2770,-0.5107,-1.7024,2.189
3.6130,-1.2508,-0.5162,-1.7270,2.194
3.6220,-2.3557,-0.8329,-0.7885,2.620
3.6300,-2.7160,-0.6364,-0.0181,2.790
3.6490,-2.2572,-0.4749,0.2599,2.321
3.6500,-1.0484,-0.2911,0.2292,1.112
3.6560,0.9372,0.0114,-0.3018,0.985
3.6650,2.3732,0.6658,-0.4927,2.514
3.6720,2.3354,0.6698,-0.5242,2.485
3.6830,2.3215,0.6690,-1.1615,2.681
3.6880,1.2840,0.4305,-1.1719,1.791
3.6990,-0.1409,-0.1016,-0.4837,0.514
3.7050,-0.9597,-0.5340,0.9179,1.431
3.7160,-1.1013,-1.2960,1.9571,2.593
3.7220,2.9361,-2.4847,-2.5057,4.591
3.7310,2.9179,-2.4776,-2.5505,4.600
3.7390,2.2542,-2.0831,-0.6653,3.141
3.7470,1.8796,-1.0068,-0.1880,2.141
3.7550,1.8251,-0.1490,0.1368,1.836
3.7650,1.0003,0.3916,-0.1724,1.088
3.7730,0.0099,0.4794,-0.2578,0.544
3.7820,-0.0999,0.2547,-0.1826,0.329
3.7890,-0.0569,0.2470,-0.2278,0.341
3.7980,0.4927,0.0445,0.0949,0.504
3.8060,1.2803,-0.2361,0.6504,1.455
3.8150,2.2315,-0.6741,0.9348,2.512
3.8250,2.8641,-1.1137,1.2254,3.308
3.8310,2.5739,-1.2617,1.0160,3.041
3.8400,1.5373,-0.8244,0.6592,1.865
3.8490,1.6534,-0.8395,0.6414,1.962
3.8590,0.2658,-0.4430,0.3157,0.605
3.8650,-0.3978,-0.5544,0.0508,0.684
3.8740,-0.6341,-0.7613,-0.1551,1.003
3.8810,-0.7761,-0.7704,-0.1453,1.103
3.8910,-0.5927,-0.8168,-0.0766,1.012
3.8980,-0.4911,-0.8225,-0.0861,0.962
3.9100,-0.6482,-0.9054,-0.5845,1.258
3.9150,-0.5173,-1.0844,-0.7317,1.407
3.9260,-0.2757,-0.9290,-0.5696,1.124
3.9330,-0.1573,-0.9096,-0.4513,1.028
3.9420,0.0577,-1.1831,-0.6684,1.360
3.9490,-0.7058,-1.7293,-0.4941,1.932
3.9570,-0.6252,-1.7256,-0.5170,1.907
3.9650,-1.3742,-1.5644,-0.9521,2.290
3.9740,-1.0228,-1.3245,-0.8415,1.873
3.9820,-0.6051,-0.8884,-0.0721,1.077
3.9910,0.2017,-0.0611,1.0436,1.065
4.0010,0.7971,0.3730,1.1634,1.459
4.0070,0.0940,0.3557,0.6660,0.761
4.0160,0.1658,0.3576,0.6511,0.761
4.0240,0.0020,0.5743,0.0595,0.577
4.0330,-0.7127,1.0646,-0.6640,1.443
4.0410,-0.8256,0.6538,-1.1133,1.532
4.0540,-1.0271,0.1855,-0.7061,1.260
4.0590,-0.5753,-0.1834,-0.0738,0.608
4.0690,-0.2694,-1.0798,0.3560,1.168
4.0750,-0.2416,-1.0742,0.3364,1.151
4.0850,-0.9225,-1.5587,-0.1074,1.814
4.0920,-1.1239,-1.4368,-0.4457,1.878
4.1000,-0.4426,-1.4728,0.1747,1.548
4.1080,-0.2996,-0.9023,0.1844,0.968
4.1170,0.0618,0.1367,-0.0962,0.178
4.1250,0.3674,0.7621,-0.1549,0.860
4.1330,0.5732,0.8574,-0.1518,1.042
4.1430,0.6541,1.4414,-0.3441,1.620
4.1520,0.5535,0.1254,-0.2235,0.610
4.1610,0.2967,-0.1112,-0.1830,0.366
4.1670,0.1387,-0.1124,0.1714,0.247
4.1750,0.3340,-0.6617,0.0759,0.745
4.1840,0.3148,-0.6618,0.0801,0.737
4.2040,-0.3900,-0.8579,-0.2072,0.965
4.2070,-0.4322,-0.9168,-0.1602,1.026
4.2090,-0.5981,-1.0540,0.0227,1.212
4.2220,-0.7154,-0.9367,-0.0891,1.182
4.2260,-0.2776,-0.4092,-0.1975,0.532
4.2340,0.2725,0.8804,-0.4392,1.021
4.2430,0.2195,0.8758,-0.4250,0.998
4.2510,0.7412,1.2439,-0.3167,1.482
4.2600,0.3469,0.2614,-0.4478,0.624
4.2680,0.4802,-0.0337,-0.1883,0.517
4.2770,1.4506,1.2573,-0.5350,1.993
4.2880,1.3875,2.3498,-0.5860,2.791
4.2930,0.5491,1.1309,-0.8929,1.542
4.3040,0.5170,1.1284,-0.8893,1.527
4.3100,0.8798,0.7153,-0.3806,1.196
4.3200,0.4647,0.1859,-0.1302,0.517
4.3260,0.5223,-0.2836,0.0407,0.596
4.3390,0.5588,-0.6348,0.0569,0.848
4.3430,0.0097,-0.1244,-0.8043,0.814
4.3630,0.1468,-0.4177,-0.1548,0.469
4.3640,0.1260,-0.4165,-0.1547,0.462
4.3710,-0.0095,-0.2977,-0.2159,0.368
4.3770,0.0135,0.0165,-0.4919,0.492
4.3850,0.4707,0.7606,-0.5515,1.051
4.3930,-0.2412,-0.1605,-0.6716,0.731
4.4020,0.1238,-0.8837,-0.4418,0.996
4.4120,0.1122,-0.8809,-0.4494,0.995
4.4190,-0.0565,-1.2499,-0.6927,1.430
4.4280,0.1453,-0.8154,-0.5055,0.970
4.4360,0.8720,0.3231,-0.3605,0.997
4.4510,1.2077,0.8919,-0.1396,1.508
4.4530,0.7874,1.2047,-0.3884,1.491
4.4750,0.1371,0.1074,-0.0681,0.187
4.4770,0.1290,0.1088,-0.0817,0.187
4.4800,-0.5905,-0.6725,-0.5261,1.038
4.4860,-0.6289,-0.6102,-0.5584,1.039
4.4960,0.0556,0.4700,-0.4945,0.684
4.5030,0.4880,0.6283,-0.0236,0.796
4.5110,0.7679,1.0605,0.0133,1.309
4.5200,1.0111,1.5698,0.0514,1.868
4.5290,1.0024,1.5687,0.0334,1.862
4.5370,0.6268,1.4694,-0.1197,1.602
4.5450,0.8230,1.4676,-0.2303,1.698
4.5530,0.5131,1.1717,-0.4943,1.371
4.5620,0.3239,1.0914,-0.5796,1.278
4.5700,-0.1967,0.5413,-0.0960,0.584
4.5780,-0.4828,0.1881,0.0743,0.523
4.5870,-0.4783,0.1878,0.0706,0.519
4.5970,-0.6553,0.2461,0.1879,0.725
4.6230,-0.4256,0.6761,0.2283,0.831
4.6240,-0.1394,0.9682,0.1519,0.990
4.6250,-0.3455,0.8876,-0.0983,0.958
4.6320,-0.5534,0.6307,-0.7156,1.103
4.6380,1.3291,0.6482,-1.9549,2.451
4.6450,1.3064,0.6464,-1.9393,2.426
4.6540,1.0953,0.2531,-1.4177,1.809
4.6620,0.3820,0.1940,-0.0838,0.437
4.6710,0.1976,0.1944,-0.0298,0.279
4.6790,0.7781,0.2139,-0.2656,0.850
4.6870,0.9493,0.1348,-0.2821,0.999
4.6950,0.9499,0.1338,-0.2781,0.999
4.7040,1.1350,-0.3765,-0.3141,1.236
4.7120,0.6601,-0.8271,-0.1362,1.067
4.7210,0.2643,-1.1006,-0.3896,1.197
4.7350,-0.1920,-1.1974,-0.3868,1.273
4.7380,-0.2393,-1.3135,-0.2457,1.358
4.7570,-0.0534,-1.1747,0.1095,1.181
4.7590,-0.0453,-1.1730,0.1106,1.179
4.7670,-0.2950,-0.8189,-0.1419,0.882
4.7710,-0.0205,-0.2110,0.2728,0.346
4.7820,-0.1607,0.2390,0.5117,0.587
4.7880,-0.9892,0.3554,0.3994,1.124
4.7970,-1.3318,0.4911,0.3292,1.457
4.8040,-0.7855,0.2353,0.4385,0.930
4.8130,-0.8211,0.2351,0.4527,0.967
4.8220,0.5953,-0.4503,0.2127,0.776
4.8300,1.4116,-0.2540,-0.7120,1.601
4.8390,1.6828,0.1571,-0.5393,1.774
4.8510,1.0227,0.0583,-0.2734,1.060
4.8550,0.3705,0.1356,-0.4791,0.621
4.8690,-0.3189,-0.0614,-0.3698,0.492
4.8730,-0.3253,-0.0621,-0.3586,0.488
4.8800,-0.8462,-0.3166,-0.3879,0.983
4.8890,-0.8252,-0.3939,-0.5151,1.049
4.8970,0.2278,-0.3532,-0.6228,0.751
4.9060,1.7126,-0.2539,-0.3398,1.764
4.9140,1.8580,-0.1165,0.0195,1.862
4.9240,1.8009,-0.5676,-1.0712,2.171
4.9300,1.8113,-0.5683,-1.0633,2.176
4.9400,0.6134,-1.7826,-3.7185,4.169
4.9480,0.5128,-1.1150,0.3802,1.285
4.9570,-0.1306,0.0215,-0.5892,0.604
4.9650,0.1677,1.0572,-0.5911,1.223
4.9730,0.9672,0.5635,2.2383,2.503
4.9810,0.9827,0.5604,2.2395,2.509
4.9910,0.2563,-0.1670,0.1666,0.348
4.9990,-0.1185,-0.1691,-0.2327,0.311
5.0120,-0.8666,-0.1121,-0.5933,1.056
5.0160,-1.2667,0.0042,-0.2525,1.292
5.0230,-0.7335,0.1208,-0.1479,0.758
5.0350,0.0311,0.0805,-0.1203,0.148
5.0400,0.0314,0.0792,-0.1103,0.139
5.0510,0.6399,-0.0787,-0.1191,0.656
5.0570,0.9171,-0.1386,-0.2461,0.960
5.0680,0.7466,-0.0811,-0.3726,0.838
5.0730,0.3629,-0.1412,-0.3612,0.531
5.0820,0.1943,-0.3186,-0.2327,0.440
5.0900,0.0243,0.2483,-0.2227,0.334
5.1090,0.0320,0.2464,-0.2130,0.327
5.1110,-0.2337,0.4597,-0.0655,0.520
5.1170,-0.2667,0.2617,-0.1720,0.411
5.1230,-0.1269,-0.2098,-0.1796,0.304
5.1320,0.2259,-0.2888,-0.3239,0.489
5.1410,0.4219,-0.1915,-0.4283,0.631
5.1490,0.5800,-0.1336,-0.1802,0.622
5.1570,0.5832,-0.1346,-0.1686,0.622
5.1660,0.6472,-0.0573,-0.2362,0.691
5.1740,0.8697,-0.0782,-0.7138,1.128
5.1830,0.4672,0.1945,-0.1136,0.519
5.1910,0.1644,0.0556,-0.5728,0.598
5.2000,0.1944,-0.1417,-0.2473,0.345
5.2100,0.2029,-0.4754,-0.2954,0.595
5.2160,0.2103,-0.4756,-0.2860,0.593
5.2250,0.1790,-0.2996,-0.3350,0.484
5.2330,0.0692,0.1305,-0.1883,0.239
5.2430,0.1548,0.2074,-0.4335,0.505
5.2490,0.2003,-0.0680,-0.6004,0.637
5.2610,-0.0879,-0.3037,-0.3762,0.491
5.2660,-0.0827,-0.3038,-0.3689,0.485
5.2800,0.1568,-0.2256,-0.4412,0.520
5.2830,0.0229,-0.2062,-0.5919,0.627
5.2920,0.1231,-0.0497,-0.3325,0.358
5.3000,0.2040,-0.1087,-0.2910,0.372
5.3080,0.0302,-0.2655,-0.0926,0.283
5.3160,0.1485,-0.1870,-0.1294,0.272
5.3250,0.1482,-0.1869,-0.1273,0.270
5.3360,0.4218,0.0872,-0.1055,0.443
5.3420,0.4024,0.2432,-0.1227,0.486
5.3540,0.2874,0.0857,-0.1787,0.349
5.3590,0.4672,-0.1108,-0.2928,0.562
5.3690,0.7262,-0.2481,-0.4454,0.887
5.3750,0.8105,-0.2875,-0.1663,0.876
5.3850,0.8187,-0.2877,-0.1613,0.883
5.3920,0.7309,-0.2097,0.0578,0.763
5.4060,0.6246,-0.0144,0.1982,0.656
5.4120,0.6557,0.1609,0.1049,0.683
5.4260,0.5310,0.1204,0.0721,0.549
5.4270,0.2126,-0.0180,0.0018,0.213
5.4340,-0.0068,-0.0387,0.0112,0.041
5.4430,0.0084,-0.0398,0.0219,0.046
5.4520,-0.1147,-0.1584,-0.1812,0.267
5.4590,-0.5130,-0.2376,-0.2840,0.633
5.4680,-0.6784,-0.1208,-0.2090,0.720
5.4760,-0.4130,0.0528,-0.1122,0.431
5.4850,0.1169,0.0307,-0.2681,0.294
5.4930,0.1175,0.0282,-0.2470,0.275
5.5020,0.5445,-0.0903,-0.3222,0.639
5.5100,0.6970,-0.3619,-0.3383,0.855
5.5190,0.6160,-0.4750,-0.3156,0.839
5.5370,0.3426,-0.4704,-0.2349,0.628
5.5380,-0.0043,-0.3498,-0.1751,0.391
5.5450,-0.4054,-0.2308,-0.2331,0.521
5.5520,-0.3971,-0.2294,-0.2136,0.506
5.5600,-0.6251,-0.1118,-0.3103,0.707
5.5680,-0.5049,-0.0345,-0.4834,0.700
5.5770,-0.0202,-0.0354,-0.6354,0.637
5.5850,0.6127,-0.0750,-0.6694,0.911
5.5940,0.9682,-0.1141,-0.6067,1.148
5.6020,0.8582,-0.0367,-0.5067,0.997
5.6110,0.8490,-0.0377,-0.4868,0.979
5.6190,0.4925,0.0387,-0.4873,0.694
5.6270,0.1220,0.0754,-0.4499,0.472
5.6360,-0.0696,-0.0432,-0.3756,0.384
5.6490,-0.1054,-0.2567,-0.2068,0.346
5.6620,0.1477,-0.2738,-0.1767,0.358
5.6630,0.1457,-0.2133,-0.3215,0.412
5.6720,0.1441,-0.2117,-0.3100,0.402
5.6780,0.0274,-0.0747,-0.3764,0.385
5.6890,-0.2817,0.1571,-0.4050,0.518
5.6940,-0.3949,0.1149,-0.4349,0.599
5.7040,-0.2962,-0.0619,-0.5414,0.620
5.7110,0.1276,-0.1589,-0.4531,0.497
5.7200,0.4490,-0.0805,-0.3856,0.597
5.7280,0.4394,-0.0806,-0.3781,0.585
5.7360,0.6640,0.0547,-0.1211,0.677
5.7450,0.0133,-1.0691,-0.9125,1.406
5.7540,0.5084,-0.6492,0.2783,0.870
5.7620,0.6733,0.8478,0.7518,1.318
5.7700,0.1698,0.3122,-0.1936,0.405
5.7790,0.1766,0.3062,-0.1907,0.402
5.7970,-0.7336,-0.6471,-0.4738,1.087
5.8040,-1.5588,-0.8023,-0.7636,1.912
5.8060,-1.2726,-0.4873,-0.7219,1.542
5.8360,-0.1898,0.0816,-0.4686,0.512
5.8400,0.6952,0.3166,-0.2199,0.795
5.8410,1.0330,0.2770,-0.1103,1.075
5.8450,1.0201,0.2765,-0.1179,1.063
5.8470,0.9906,0.1390,-0.1248,1.008
5.8560,0.6905,-0.0179,-0.0927,0.697
5.8670,0.4707,-0.1550,-0.1191,0.510
5.8940,0.5852,-0.2135,-0.1839,0.649
5.8960,0.7011,-0.1937,-0.0130,0.728
5.8980,0.8000,-0.2719,-0.0183,0.845
5.9010,0.8050,-0.2718,-0.0236,0.850
5.9050,0.9902,-0.2523,0.3414,1.077
5.9130,1.0032,-0.2721,0.1759,1.054
5.9210,0.5501,-0.3508,-0.0467,0.654
5.9440,-0.3131,-0.4879,-0.2877,0.647
5.9450,-0.9829,-0.7616,-0.3917,1.304
5.9460,-0.9713,-0.5256,-0.1648,1.117
5.9620,-0.9635,-0.5249,-0.1743,1.111
5.9630,-1.1550,0.1806,-0.1055,1.174
5.9730,-0.8627,0.8261,0.4925,1.292
5.9800,-0.1653,0.6679,0.2508,0.732
5.9900,0.6281,0.0599,-0.0039,0.631
5.9960,1.3237,-0.1359,-0.0786,1.333
6.0070,1.0034,0.2557,-0.0959,1.040
6.0130,1.0019,0.2550,-0.0952,1.038
6.0220,0.5540,0.1171,-0.2902,0.636
6.0300,-0.0885,-0.0988,-0.0552,0.144
6.0400,-0.6153,-0.3533,-0.1944,0.736
6.0470,-0.9306,-0.3722,-0.3319,1.056
6.0550,-0.8597,-0.3126,-0.2130,0.939
6.0640,-0.8723,-0.3116,-0.2123,0.950
6.0750,-0.5145,-0.0366,0.0230,0.516
6.1000,-0.1183,-0.0165,-0.0343,0.124
6.1010,0.5907,-0.2706,-0.6386,0.911
6.1020,1.3994,-0.1718,-0.7136,1.580
6.1060,1.4520,0.0438,-0.4402,1.518
6.1150,1.0417,-0.0350,-0.1921,1.060
6.1220,1.0443,-0.0352,-0.2004,1.064
6.1330,0.2434,-0.1333,0.1048,0.297
6.1390,-0.6973,-0.3876,-0.0597,0.800
6.1480,-1.1346,-0.4257,-0.3211,1.254
6.1560,-1.2827,-0.7180,-0.4440,1.536
6.1650,-0.8477,-0.8333,-0.2144,1.208
6.1730,0.0331,-0.9482,-0.3973,1.029
6.1820,0.0117,-0.9453,-0.4046,1.028
6.1900,0.6769,-0.5314,0.2315,0.891
6.2070,1.7947,0.0381,-0.1153,1.799
6.2100,2.2547,0.5472,-0.1686,2.326
6.2330,1.8820,1.0548,-0.2417,2.171
6.2350,1.0264,0.9934,-0.0802,1.431
6.2360,0.1957,0.3253,0.5905,0.702
6.2410,0.2089,0.3240,0.5755,0.693
6.2490,-0.5846,-0.3230,0.5245,0.849
6.2600,-1.0310,-0.6749,-0.0691,1.234
6.2650,-1.1890,-0.9670,-0.3064,1.563
6.2740,-0.4898,-0.7298,-0.3885,0.961
6.2830,0.5015,-0.2974,-0.5118,0.776
6.2920,0.4971,-0.2966,-0.5187,0.777
6.2990,1.6740,0.5846,-0.3896,1.815
6.3090,2.0559,1.2287,-0.3591,2.422
6.3160,2.1327,0.8336,-0.0731,2.291
6.3240,2.3136,0.4390,0.2916,2.373
6.3330,1.9560,0.1819,0.3433,1.994
6.3570,1.4691,0.4928,0.1630,1.558
6.3590,1.5168,0.4897,0.1611,1.602
6.3660,0.8651,0.9957,0.0820,1.322
6.3660,0.6118,1.1288,0.0044,1.284
6.3760,0.2063,0.4790,-0.0313,0.523
6.3820,-0.0051,-0.3256,-0.1232,0.348
6.3920,-0.9501,-1.0107,-0.1349,1.394
6.3990,-4.1550,-1.8703,-0.0677,4.557
6.4080,-4.1252,-1.8668,-0.0594,4.528
6.4160,-5.2467,-1.7850,0.0069,5.542
6.4240,-2.2940,-0.5486,-0.7496,2.475
6.4340,-1.0818,-0.8414,-0.3893,1.425
6.4410,-0.5516,-1.0161,-0.4806,1.252
6.4500,0.0280,-0.5640,-0.5323,0.776
6.4580,0.8968,-0.0148,-0.5460,1.050
6.4790,0.8684,-0.0147,-0.5428,1.024
6.4800,1.5340,0.2006,-0.2275,1.564
6.4890,1.7564,0.3371,-0.1277,1.793
6.4920,1.8464,0.3558,-0.1647,1.888
6.5010,1.5709,0.0612,-0.2609,1.594
6.5080,0.9878,-0.0762,-0.5146,1.116
6.5170,0.4476,-0.1547,-0.6905,0.837
6.5250,0.4572,-0.1546,-0.6919,0.844
6.5340,-0.0234,-0.1154,-0.5199,0.533
6.5430,-0.2907,-0.1348,-0.2728,0.421
6.5510,-0.1883,-0.2716,-0.2624,0.422
6.5610,0.0310,-0.2711,-0.3295,0.428
6.5670,0.2116,-0.2119,-0.5723,0.646
6.5780,0.2161,-0.2114,-0.5801,0.654
6.5840,0.7510,-0.4655,-0.6082,1.073
6.5940,0.9947,-0.1318,-0.0120,1.003
6.6010,0.5360,0.3578,0.0931,0.651
6.6180,0.0992,0.3570,-0.0132,0.371
6.6190,0.1529,0.1212,-0.2332,0.304
6.6370,0.9132,-0.0945,-0.3939,0.999
6.6390,0.9317,-0.0943,-0.3999,1.018
6.6440,1.1690,-0.0158,-0.2318,1.192
6.6510,0.4480,0.1997,-0.0844,0.498
6.6600,-0.5890,0.4147,-0.1920,0.746
6.6680,-1.6301,0.0226,-0.3766,1.673
6.6760,-0.4094,0.0813,-0.3443,0.541
6.6840,1.1890,-0.4081,0.0795,1.260
6.6930,1.1835,-0.4072,0.0720,1.254
6.7010,1.5032,-0.7586,0.0662,1.685
6.7250,1.3557,-0.6201,0.0432,1.491
6.7260,0.5999,-0.4231,0.2167,0.765
6.7270,0.0603,-0.3047,0.0369,0.313
6.7390,-0.5771,-0.2846,-0.0831,0.649
6.7430,-0.9834,-0.2840,-0.1632,1.037
6.7570,-0.9860,-0.2836,-0.1641,1.039
6.7610,-1.0332,-0.1464,-0.3200,1.091
6.7710,-0.8278,-0.0877,-0.1618,0.848
6.7770,-0.7620,-0.2053,-0.1795,0.809
6.7850,-0.7214,-0.3814,-0.4115,0.914
6.7940,-0.5885,-0.5571,-0.5059,0.955
6.8030,0.0115,-0.1844,-0.4444,0.481
6.8110,-0.0173,-0.1841,-0.4434,0.480
6.8190,0.6409,0.3838,-0.2868,0.800
6.8270,0.4038,0.8332,-0.4236,1.018
6.8360,0.2494,0.5965,-0.0698,0.650
6.8440,0.3691,0.3212,-0.2252,0.539
6.8520,0.5865,-0.4429,-0.4969,0.887
6.8610,0.5694,-0.4420,-0.4941,0.874
6.8760,0.7493,-0.7933,0.0157,1.091
6.8780,0.7946,-0.4980,-0.0265,0.938
6.8870,0.9599,0.1883,-0.1290,0.987
6.8960,0.5791,0.9904,-0.4266,1.224
6.9030,0.1614,0.9297,-0.5466,1.090
6.9120,0.2323,0.5363,-0.3125,0.663
6.9190,0.2238,0.5352,-0.3122,0.659
6.9280,0.3529,0.2404,-0.0760,0.434
6.9360,1.3283,0.0636,-0.1532,1.339
6.9450,2.4856,-0.1326,0.1995,2.497
6.9530,2.3782,-0.3285,0.0224,2.401
6.9620,1.3600,-0.3873,0.0419,1.415
6.9700,-0.0245,-0.6808,-0.1537,0.698
6.9790,0.0031,-0.6800,-0.1532,0.697
6.9870,-1.2828,-1.0314,-0.1916,1.657
6.9950,-1.9084,-0.8535,-0.2107,2.101
7.0030,-2.0753,-0.4214,-0.9161,2.307
7.0150,-2.6622,-0.1857,-0.5645,2.728
7.0230,-1.7492,-0.2048,0.0781,1.763
7.0340,0.1349,-0.1650,0.0933,0.233
7.0430,0.1158,-0.1647,0.0930,0.222
7.0450,1.6065,-0.0470,0.2129,1.621
7.0560,1.7702,0.0117,-0.0982,1.773
7.0620,0.9422,-0.0864,-0.2911,0.990
7.0720,0.1184,-0.2823,-0.2678,0.407
7.0790,-0.1568,-0.2624,-0.1273,0.331
7.0900,0.0951,-0.1838,-0.1052,0.232
7.0960,0.0906,-0.1836,-0.1024,0.229
7.1050,0.3405,-0.0856,-0.0407,0.353
7.1130,0.0616,-0.1835,-0.4680,0.506
7.1210,-0.5313,-0.3595,-0.5413,0.839
7.1290,-0.6165,-0.7307,-0.6943,1.182
7.1380,-0.0596,-0.6900,-0.6136,0.925
7.1460,-0.0729,-0.6885,-0.6136,0.925
7.1600,0.7977,-0.3346,-0.2837,0.910
7.1670,1.1445,-0.0598,-0.0926,1.150
7.1810,0.8312,0.1164,-0.2530,0.877
7.1820,0.3446,0.4682,-0.4700,0.748
7.1880,0.0747,0.6627,-0.3919,0.774
7.1990,0.0793,0.4849,-0.3525,0.605
7.2050,0.0830,0.4836,-0.3521,0.604
7.2150,0.4763,0.1300,-0.2724,0.564
7.2220,0.8308,-0.1054,0.3356,0.902
7.2310,0.4834,-0.3795,0.1778,0.640
7.2390,0.5102,0.0515,-0.2926,0.590
7.2470,0.1474,-0.0077,-0.3507,0.381
7.2550,-0.2126,-0.2821,-0.5669,0.668
7.2640,-0.2012,-0.2818,-0.5681,0.665
7.2730,0.1404,-0.3206,-0.5496,0.652
7.2810,0.1672,-0.2810,-0.0621,0.333
7.2900,0.1549,-0.1827,0.0319,0.242
7.3020,0.4558,-0.0455,-0.2460,0.520
7.3090,0.2674,-0.4958,-0.1503,0.583
7.3320,0.4146,0.3661,0.0049,0.553
7.3330,0.4263,0.3651,0.0037,0.561
7.3340,0.6526,1.2056,0.2571,1.395
7.3450,0.8401,0.4002,-0.1124,0.937
7.3480,0.1698,-0.6190,0.0717,0.646
7.3580,-0.0882,-0.7357,-0.1754,0.761
7.3650,-0.1912,-0.4020,-0.1676,0.476
7.3730,-0.1787,-0.4017,0.1548,0.466
7.3810,0.0856,-0.0686,0.1052,0.152
7.3900,0.6049,-0.1669,-0.1386,0.643
7.3980,0.5405,-0.4608,-0.3392,0.787
7.4070,0.4388,-0.6562,-0.4781,0.923
7.4150,0.4137,-0.3227,-0.2258,0.571
7.4230,0.1338,-0.2443,-0.0928,0.294
7.4320,0.1501,-0.2442,-0.0786,0.297
7.4420,-0.4407,-0.0288,-0.1042,0.454
7.4550,-0.4670,0.4994,-0.1307,0.696
7.4600,-0.1051,0.4784,-0.4705,0.679
7.4700,0.1776,0.1443,-0.5930,0.636
7.4750,0.6556,-0.1891,-0.3613,0.772
7.4820,0.7826,-0.7762,-0.2663,1.134
7.4910,0.7975,-0.7747,-0.2493,1.139
7.5010,-0.0467,-1.0081,-0.0366,1.010
7.5080,-0.4035,-0.5168,0.0173,0.656
7.5170,-0.2957,0.3453,-0.1070,0.467
7.5240,-0.0148,0.9316,-0.3488,0.995
7.5330,0.0708,0.8708,-0.3742,0.950
7.5410,0.1577,0.4579,-0.4578,0.666
7.5560,0.1663,0.4569,-0.4437,0.658
7.5580,0.2312,0.0239,-0.5212,0.571
7.5660,0.1217,-0.4030,-0.4444,0.612
7.5750,0.0904,-0.4759,-0.3718,0.611
7.5950,0.0200,-0.3350,-0.5540,0.648
7.5960,-0.0895,-0.1385,-0.6667,0.687
7.6030,-0.0041,0.0770,-0.6639,0.668
7.6110,0.0019,0.0768,-0.6630,0.667
7.6160,0.1055,0.0179,-0.5473,0.558
7.6290,0.0914,-0.0409,-0.5116,0.521
7.6330,0.0182,-0.0409,-0.4964,0.498
7.6430,0.0230,-0.1388,-0.4824,0.503
7.6500,-0.0121,-0.2169,-0.4894,0.535
7.6600,-0.0083,-0.2165,-0.4977,0.543
7.6670,-0.1029,-0.2358,-0.3894,0.467
7.6760,-0.3547,-0.2745,-0.4002,0.601
7.6840,-0.6279,-0.3133,-0.3335,0.777
7.6920,-0.9042,-0.2542,-0.1109,0.946
7.7000,-1.0463,-0.1757,-0.1444,1.071
7.7180,-0.8793,0.0004,-0.1399,0.890
7.7190,-0.8933,-0.0002,-0.1551,0.907
7.7400,-0.6757,0.1363,-0.3272,0.763
7.7420,-0.1858,0.1550,-0.3817,0.452
7.7430,0.3625,0.0956,-0.3969,0.546
7.7520,0.7940,0.0167,-0.4505,0.913
7.7610,1.0506,-0.1011,-0.4248,1.138
7.7710,0.9968,-0.1793,-0.3985,1.088
7.7760,0.9866,-0.1791,-0.4112,1.084
7.7860,0.7244,-0.2178,-0.4439,0.877
7.7920,0.4448,-0.1978,-0.2418,0.544
7.8020,0.1276,-0.0603,-0.0007,0.141
7.8090,-0.0526,0.0964,0.0444,0.118
7.8190,-0.0965,0.1550,0.0699,0.196
7.8260,0.0936,0.0177,-0.0023,0.095
7.8360,0.0872,0.0177,-0.0144,0.090
7.8430,0.4086,-0.0223,0.0140,0.409
7.8600,0.6690,-0.1197,0.0235,0.680
7.8610,0.6183,-0.1578,-0.0047,0.638
7.8840,0.5319,-0.1954,0.0067,0.567
7.8850,0.2935,-0.1163,-0.0404,0.318
7.8860,0.0389,-0.0383,-0.1072,0.120
7.8930,0.0387,-0.0388,-0.1157,0.128
7.9020,-0.0976,-0.0392,-0.2015,0.227
7.9100,-0.1552,-0.1363,-0.3826,0.435
7.9190,-0.1366,-0.1354,-0.5031,0.539
7.9290,-0.0618,-0.1538,-0.5253,0.551
7.9350,0.0497,-0.1333,-0.3732,0.399
7.9430,0.0435,-0.1324,-0.3784,0.403
7.9520,0.2130,-0.1315,-0.2876,0.381
7.9620,0.2850,-0.1112,-0.2178,0.376
7.9690,0.4729,-0.1685,-0.1678,0.529
7.9770,0.5045,-0.1477,-0.1373,0.543
7.9860,0.4788,-0.1079,-0.1848,0.524
7.9940,0.5124,-0.1266,-0.1930,0.562
8.0030,0.5078,-0.1257,-0.2003,0.560
8.0270,0.5623,-0.1442,-0.2067,0.616
8.0280,0.6950,-0.1431,-0.2318,0.746
8.0290,1.0984,-0.2581,-0.3328,1.176
8.0360,1.7497,-0.4297,-0.1408,1.807
8.0460,2.4636,-0.5658,0.1098,2.530
8.0520,2.6917,-0.5452,0.1483,2.750
8.0620,2.7128,-0.5444,0.1506,2.771
8.0730,2.6449,-0.4262,-0.0196,2.679
8.0780,2.6218,-0.3082,-0.1665,2.645
8.0880,2.4649,-0.1904,-0.2917,2.489
8.0950,2.0354,0.1035,-0.5332,2.107
8.1040,1.1001,0.3384,-0.9510,1.493
8.1110,0.1115,0.4754,-1.5475,1.623
8.1210,0.1659,0.4756,-1.5395,1.620
8.1280,-0.4821,0.4959,-1.7710,1.901
8.1420,-0.5806,0.4384,-1.5994,1.757
8.1460,-0.2479,0.3034,-1.0429,1.114
8.1660,0.1050,0.1498,-0.4727,0.507
8.1670,-0.0294,-0.0029,-0.1813,0.184
8.1710,-0.4341,-0.0763,0.0504,0.444
8.1780,-0.3665,-0.0707,0.0285,0.374
8.1890,-0.7514,-0.2410,0.3209,0.852
8.1950,-1.0212,-0.3716,0.5356,1.212
8.2040,-1.2549,-0.3454,0.6536,1.456
8.2120,-1.1601,-0.2216,0.5971,1.323
8.2210,-0.9309,-0.2155,0.4263,1.046
8.2290,-0.8805,-0.2095,0.4146,0.996
8.2380,-0.4605,-0.1840,0.3462,0.605
8.2500,-0.2187,-0.1195,0.3582,0.436
8.2550,-0.2918,-0.1139,0.3535,0.472
8.2660,-0.4824,-0.1867,0.1954,0.553
8.2720,-0.6358,-0.1421,0.0204,0.652
8.2830,-0.7136,-0.1370,-0.1135,0.735
8.2880,-0.6767,-0.1323,-0.1097,0.698
8.3190,-0.9375,-0.1476,-0.2426,0.980
8.3200,-1.1428,-0.1045,-0.2775,1.181
8.3220,-1.2933,-0.0817,-0.4894,1.385
8.3230,-1.2136,-0.1378,-0.5064,1.322
8.3450,-1.0800,-0.1747,-0.4666,1.189
8.3460,-0.9326,-0.1340,-0.4678,1.052
8.3490,-0.9264,-0.1331,-0.4700,1.047
8.3550,-0.8650,-0.0936,-0.3352,0.932
8.3640,-0.8659,-0.0938,-0.2792,0.915
8.3710,-0.8893,-0.0553,-0.1650,0.906
8.3800,-0.9172,-0.0371,-0.3447,0.981
8.4080,-0.9298,-0.0392,-0.4067,1.016
8.4090,-1.0433,-0.0221,-0.4489,1.136
8.4100,-1.0619,-0.0251,-0.4516,1.154
8.4150,-1.2205,-0.0090,-0.4151,1.289
8.4270,-1.3230,0.0264,-0.3214,1.362
8.4300,-1.4080,0.0029,-0.2299,1.427
8.4510,-1.3394,-0.0012,-0.2964,1.372
8.4520,-1.3329,-0.0057,-0.1479,1.341
8.4610,-1.3677,0.0288,-0.0194,1.368
8.4640,-1.3656,0.0240,-0.0278,1.366
8.4730,-1.3457,0.0190,-0.2109,1.362
8.4800,-1.0357,0.0920,-0.2940,1.081
8.4890,-0.5921,0.1841,-0.3555,0.715
8.4970,-0.4642,0.4717,-0.4546,0.803
8.5060,-0.2003,0.8567,-0.7084,1.130
8.5140,-0.2511,0.8494,-0.7050,1.132
8.5230,0.2258,1.0967,-0.9151,1.446
8.5350,0.9555,0.9912,-1.1817,1.814
8.5400,1.8231,0.5732,-1.5637,2.469
8.5510,2.7337,0.1372,-1.9256,3.347
8.5560,3.0808,-0.3166,-2.2111,3.805
8.5820,2.8663,-0.4359,-2.4785,3.814
8.5830,2.8350,-0.4370,-2.4717,3.787
8.5840,1.8531,-0.2026,-2.7387,3.313
8.5900,0.4552,0.3451,-2.8271,2.884
8.5990,-0.6566,0.5790,-2.5800,2.724
8.6060,-1.6024,0.4410,-2.2533,2.800
8.6160,-2.1495,0.1663,-2.2370,3.107
8.6230,-2.2843,0.1074,-2.9205,3.709
8.6320,-2.2650,0.1068,-2.8895,3.673
8.6400,-1.5042,-0.0116,-3.0848,3.432
8.6490,-0.5072,-0.4036,-2.7299,2.806
8.6560,0.2778,-0.6375,-2.4152,2.513
8.6660,0.9113,-0.4397,-2.1602,2.385
8.6740,1.4953,-0.0649,-2.0064,2.503
8.6820,2.0677,0.2123,-1.6802,2.673
8.6980,2.1184,0.2160,-1.6508,2.694
8.7100,2.7441,0.2208,-1.3677,3.074
8.7100,3.1197,0.0309,-0.9097,3.250
8.7200,3.3239,-0.1770,-0.5314,3.371
8.7270,3.5315,-0.3835,-0.2713,3.563
8.7330,3.8796,-0.3145,-0.0501,3.893
8.7410,3.9538,-0.3035,-0.0249,3.965
8.7490,4.4393,-0.1940,0.1565,4.446
8.7580,5.1397,-0.0839,0.4153,5.157
8.7670,5.6047,-0.2081,0.6543,5.647
8.7750,5.9317,-0.4878,0.6397,5.986
8.7830,5.9641,-0.6490,0.5094,6.021
8.7920,6.0915,-0.6138,0.1854,6.125
8.7990,6.1561,-0.5984,0.2158,6.189
8.8090,6.2923,-0.4074,0.1494,6.307
8.8160,6.3204,-0.1008,0.0054,6.321
8.8250,6.2030,0.2821,-0.0799,6.210
8.8330,5.9979,0.7213,-0.1077,6.042
8.8430,5.7047,1.0598,-0.2939,5.810
8.8520,5.5961,1.3169,-0.3248,5.758
8.8690,5.5887,1.3157,-0.2986,5.749
8.8700,5.5683,1.3510,-0.1755,5.733
8.8750,5.5542,1.4031,-0.2098,5.733
8.8860,5.4885,1.3159,-0.1655,5.646
8.8920,5.4303,1.1876,-0.0618,5.559
8.9010,5.5322,1.1352,0.0029,5.647
8.9080,5.5240,1.1208,0.1093,5.638
8.9180,5.4276,1.1055,0.1395,5.541
8.9260,5.3022,1.1682,0.2306,5.434
8.9340,5.0885,1.2502,0.2262,5.245
8.9420,4.9017,1.2731,0.2044,5.068
8.9510,4.6071,1.1597,0.3220,4.762
8.9590,4.2649,0.9498,0.5582,4.405
8.9800,3.7395,0.7027,0.5409,3.843
8.9810,3.5805,0.6932,0.5838,3.693
8.9880,3.0009,0.3532,0.5313,3.068
8.9930,2.5331,0.1538,0.4809,2.583
9.0010,2.1371,0.0950,0.2560,2.154
9.0110,1.6768,0.0399,0.0730,1.679
9.0180,1.2697,0.0281,-0.0687,1.272
9.0280,1.0725,0.0401,-0.0148,1.073
9.0340,0.4030,0.0954,-0.0588,0.418
9.0430,-0.1690,0.1355,-0.1614,0.270
9.0510,-0.6040,0.1016,-0.2254,0.653
9.0610,-1.0002,0.1309,-0.4077,1.088
9.0680,-1.3367,0.1253,-0.5115,1.437
9.0770,-1.8078,0.1045,-0.2819,1.833
9.0850,-1.9997,0.1460,-0.2295,2.018
9.0940,-2.5939,0.0527,-0.0026,2.594
9.1140,-3.3341,0.0203,0.0281,3.334
9.1160,-3.6688,0.1062,0.0602,3.671
9.1180,-3.7003,0.2518,0.0940,3.710
9.1340,-3.5070,0.3977,0.2655,3.539
9.1520,-3.5188,0.5622,0.5919,3.612
9.1530,-3.6346,0.6067,0.6405,3.740
9.1540,-3.8089,0.7240,1.0353,4.013
9.1600,-4.3585,0.7380,1.2850,4.604
9.1690,-4.9101,0.7072,1.3915,5.152
9.1770,-5.6594,0.6313,1.3558,5.854
9.1860,-6.2737,0.5300,1.3159,6.432
9.1940,-6.6506,0.4406,1.2715,6.785
9.2030,-6.6395,0.4427,1.2794,6.776
9.2110,-6.7687,0.2618,1.3011,6.898
9.2200,-6.9978,0.0741,1.4528,7.147
9.2300,-7.4238,-0.0814,1.4199,7.559
9.2360,-7.8261,-0.0689,1.1447,7.910
9.2450,-8.1531,0.0361,0.7459,8.187
9.2530,-8.3466,0.0000,0.5606,8.365
9.2610,-8.1917,0.1373,0.5311,8.210
9.2690,-8.2183,0.3312,0.4819,8.239
9.2820,-8.5009,0.1904,0.1224,8.504
9.2890,-6.2901,0.3265,-2.5200,6.784
9.2950,-0.4033,0.9224,-1.6170,1.905
9.3030,5.4245,2.0742,-0.8421,5.868
9.3130,5.5119,2.0525,-0.8341,5.941
9.3200,7.0951,3.7516,-0.6757,8.054
9.3290,7.6161,5.9908,0.2512,9.693
9.3370,7.2222,7.1042,1.5691,10.251
9.3470,4.7652,5.5117,2.0763,7.576
9.3540,1.7619,2.4178,2.6056,3.967
9.3630,-1.3538,-0.9188,2.6511,3.115
9.3710,-1.1703,-0.9332,2.6327,3.028
9.3790,-3.9318,-3.5828,1.3952,5.499
9.3870,-6.1044,-4.5395,0.9279,7.664
9.4090,-8.0811,-3.3981,-0.4977,8.781
9.4130,-8.6056,-0.9257,-1.9748,8.878
9.4140,-7.4095,1.4074,-1.2902,7.652
9.4200,-5.7711,2.5431,-1.2927,6.438
9.4300,-5.6455,2.5429,-1.2749,6.322
9.4370,-4.6969,1.9967,-0.7840,5.164
9.4460,-3.3466,0.7872,-0.0793,3.439
9.4550,-2.3045,-0.2625,0.8986,2.487
9.4630,-1.8390,-0.5068,1.5239,2.442
9.4730,-1.1454,-0.4562,1.5820,2.006
9.4800,-0.6383,-0.2485,1.1352,1.326
9.4880,-0.5712,-0.2360,1.1650,1.319
9.4960,-0.8014,-0.0462,0.5928,0.998
9.5050,-1.2115,0.0848,0.0425,1.215
9.5130,-1.5478,0.1174,-0.6249,1.673
9.5210,-1.7517,0.1688,-0.9210,1.986
9.5300,-1.5120,0.1799,-1.2591,1.976
9.5440,-1.4729,0.1897,-1.2287,1.927
9.5470,-1.1233,0.1597,-1.3385,1.755
9.5660,-0.4648,0.0699,-1.2752,1.359
9.5670,0.2874,0.0580,-1.3122,1.345
9.5720,0.8607,-0.0129,-1.2519,1.519
9.5810,1.2773,-0.1031,-1.1336,1.711
9.5910,1.7155,-0.2709,-0.8397,1.929
9.6000,1.7440,-0.2619,-0.8213,1.945
9.6050,2.0305,-0.2914,-0.3330,2.078
9.6150,2.0078,-0.0847,-0.0402,2.010
9.6210,1.8322,0.0836,-0.0986,1.837
9.6320,1.5441,0.2135,-0.3126,1.590
9.6390,1.2609,0.2659,-0.5853,1.415
9.6480,1.1785,0.2407,-1.0153,1.574
9.6550,1.2374,0.2554,-0.9961,1.609
9.6640,1.2412,0.0554,-1.3117,1.807
9.6720,1.3485,-0.1826,-1.5324,2.049
9.6840,1.5392,-0.2629,-1.6977,2.307
9.6890,1.7549,-0.2049,-1.5530,2.352
9.7110,1.8781,0.0104,-1.2369,2.249
9.7120,1.9681,0.0897,-0.9249,2.176
9.7150,2.0669,0.1125,-0.9297,2.269
9.7230,2.0935,0.2740,-0.5661,2.186
9.7320,1.9883,0.2026,-0.0294,1.999
9.7400,1.7309,0.3100,0.1342,1.764
9.7480,1.3979,0.4002,0.0445,1.455
9.7560,0.9896,0.5515,-0.0445,1.134
9.7640,0.4267,0.7434,-0.2715,0.899
9.7740,0.5523,0.7804,-0.2847,0.997
9.7810,0.2866,1.0730,-0.1248,1.118
9.7930,0.3951,1.3076,-0.2250,1.384
9.7980,0.9174,1.6018,-0.4689,1.905
9.8090,1.5971,2.1123,-0.6400,2.724
9.8150,2.3784,2.7814,-0.9527,3.782
9.8340,2.5180,2.8265,-0.9966,3.914
9.8360,3.1527,3.5021,-0.9277,4.803
9.8530,3.5603,4.1828,-1.0980,5.602
9.8540,3.6998,4.8481,-1.0574,6.190
9.8580,3.9033,5.2636,-0.8839,6.612
9.8650,4.2075,5.4677,-1.2049,7.004
9.8740,4.5344,5.7747,-1.5512,7.504
9.8820,4.7099,5.8529,-1.6304,7.688
9.8910,5.1635,6.2700,-1.7000,8.298
9.9010,5.6782,6.8098,-1.9369,9.076
9.9080,6.6628,7.4126,-2.0286,10.171
9.9170,8.0391,8.3138,-1.9209,11.723
9.9250,9.8085,9.7298,-1.8569,13.940
9.9340,12.3571,11.6385,-1.7563,17.066
9.9410,12.5300,11.7492,-1.9479,17.287
9.9500,15.4777,13.6277,-1.9796,20.717
9.9580,18.6520,15.0031,-2.0589,24.026
9.9760,19.8691,16.0815,-1.8629,25.629
9.9810,17.8655,15.7131,-2.1123,23.886
9.9910,14.5220,15.2458,-3.1394,21.288
9.9930,10.7228,14.4884,-4.4461,18.565
10.0000,10.9693,14.7569,-4.3628,18.898
10.0080,7.5638,13.0787,-3.7288,15.562
10.0170,4.4955,9.9540,-2.9586,11.316
10.0250,1.9630,6.0833,-3.4774,7.277
10.0340,2.8937,2.4068,-1.9454,4.237
10.0410,5.0205,0.5623,-1.8125,5.367
10.0510,5.0695,0.6584,-1.7837,5.414
10.0610,2.5616,-1.1064,-3.3445,4.356
10.0770,4.2859,-1.3887,-3.4592,5.680
10.0800,8.9555,-1.1230,-2.3824,9.335
10.0850,12.9561,-1.0871,-1.6966,13.112
10.0940,14.1807,-1.3230,-1.2662,14.298
10.1000,13.3334,-1.5499,-1.1795,13.475
10.1140,13.1732,-1.7334,-1.2570,13.346
10.1190,11.6613,-1.9917,-1.1382,11.885
10.1350,10.2257,-2.1701,-1.0371,10.505
10.1390,8.6261,-2.0944,-1.0518,8.939
10.1450,7.1814,-1.7351,-0.8701,7.439
10.1500,6.0284,-1.1089,-0.6435,6.163
10.1590,5.0684,-0.3698,-0.3389,5.093
10.1670,4.7514,-0.6308,-0.2759,4.801
10.1760,4.0555,0.1656,-0.2232,4.065
10.1840,3.1441,0.7135,-0.4523,3.256
10.1920,1.8242,1.0365,-0.4894,2.154
10.2010,0.4293,1.1364,-1.0180,1.585
10.2090,-0.4354,1.1124,-1.5645,1.968
10.2290,-0.5995,1.0821,-1.6002,2.023
10.2320,-1.0558,0.8940,-1.5572,2.083
10.2360,-0.8615,0.9032,-1.0449,1.628
10.2430,-0.7383,0.9359,-0.7250,1.395
10.2520,-1.1084,0.9950,-0.5734,1.596
10.2590,-1.7345,0.9632,-0.5288,2.053
10.2680,-2.3055,1.0948,-0.4332,2.589
10.2760,-2.9342,1.3699,-0.5456,3.284
10.2850,-3.4236,1.3575,-0.4565,3.711
10.2930,-4.0117,1.9190,-0.4220,4.467
10.3010,-4.3995,2.6810,-0.3279,5.162
10.3100,-5.0567,3.6621,-0.3708,6.254
10.3180,-5.9605,4.7633,-0.3168,7.637
10.3260,-7.1669,5.7677,-0.3437,9.206
10.3350,-7.6150,5.8907,-0.2569,9.631
10.3430,-8.4915,6.5004,-0.3693,10.700
10.3520,-9.6756,6.9466,-0.4639,11.920
10.3660,-10.8911,7.3628,-0.5840,13.159
10.3690,-11.9170,7.9782,-0.5925,14.353
10.3840,-13.1488,8.2516,-0.4905,15.531
10.3850,-15.0827,8.0232,-0.3772,17.088
10.3960,-15.2158,8.1112,-0.3281,17.246
10.4020,-17.5347,7.1353,-0.1624,18.932
10.4110,-20.1607,5.5842,0.3831,20.923
10.4190,-21.8298,4.1767,0.9814,22.247
10.4270,-19.7588,3.1365,1.5514,20.066
10.4360,-18.2436,1.6828,1.6042,18.391
10.4440,-18.2271,0.1265,1.5958,18.297
10.4520,-17.9835,0.0099,1.5145,18.047
10.4610,-15.2013,1.4793,0.1941,15.274
10.4690,-13.6878,3.7703,-3.2860,14.573
10.4780,-6.0294,8.0230,-0.7643,10.065
10.4860,6.8196,17.9291,3.8895,19.573
10.4970,10.6323,24.1304,5.9999,27.043
10.5030,-2.2636,16.8743,6.4993,18.224
10.5110,-1.8034,16.7119,6.4025,17.987
10.5320,-7.8026,5.8896,6.4975,11.738
10.5330,-7.8473,-4.3240,4.0534,9.834
10.5370,-7.9608,-11.2406,0.9276,13.805
10.5450,-8.7175,-13.0772,-1.3434,15.774
10.5590,-9.0872,-9.1654,-1.4888,12.992
10.5620,-10.2990,-3.8269,-0.1089,10.988
10.5710,-10.0324,-3.8182,-0.0904,10.735
10.5790,-12.8540,1.3436,-0.1192,12.925
10.5870,-14.2814,4.2691,-1.4602,14.977
10.5960,-13.0416,4.7069,-1.4016,13.936
10.6040,-9.7856,3.3644,0.4846,10.359
10.6130,-5.8026,1.2599,1.1085,6.040
10.6250,-5.6750,1.2739,1.1231,5.924
10.6320,-2.3474,-0.7855,0.6945,2.571
10.6400,0.0239,-1.8620,1.0705,2.148
10.6460,1.0692,-1.5475,1.7569,2.574
10.6540,0.8725,-0.5292,1.0330,1.452
10.6620,-0.2255,0.4680,0.0966,0.528
10.6710,-1.5967,1.0919,-1.0722,2.212
10.6890,-1.5195,1.1076,-1.0459,2.152
10.6890,-2.3890,1.2786,-1.6493,3.172
10.6970,-2.7007,0.9374,-1.8266,3.393
10.7040,-2.2777,0.3594,-1.7936,2.921
10.7130,-1.1375,-0.2583,-1.9604,2.281
10.7210,0.1529,-0.5630,-1.7979,1.890
10.7300,1.3033,-0.5346,-1.5589,2.101
10.7380,1.3376,-0.5253,-1.5557,2.118
10.7460,2.0210,-0.2803,-1.1417,2.338
10.7550,2.0804,0.0243,-0.8639,2.253
10.7630,1.7314,0.2513,-0.3495,1.784
10.7710,1.4836,0.2441,-0.2651,1.527
10.7800,1.5921,0.0426,-0.4142,1.646
10.7880,1.6838,-0.1181,-0.5428,1.773
10.7990,1.7395,-0.1009,-0.5333,1.822
10.8080,1.6419,-0.2195,-0.5629,1.749
10.8180,1.6475,-0.4143,-0.7102,1.841
10.8240,1.8949,-0.4694,-0.8586,2.133
10.8300,2.3437,-0.5224,-1.1455,2.660
10.8400,2.7413,-0.4157,-1.1400,2.998
10.8470,2.8343,-0.3843,-1.1376,3.078
10.8560,3.1911,-0.0364,-1.0605,3.363
10.8640,3.3444,0.3549,-0.8498,3.469
10.8720,3.1738,0.6714,-0.5062,3.283
10.8800,2.7372,0.9132,-0.1847,2.891
10.8900,2.1716,1.1984,0.0365,2.481
10.8970,1.6509,1.7412,0.0588,2.400
10.9220,1.8021,1.7977,0.0372,2.546
10.9230,1.4069,2.5808,-0.2065,2.947
10.9240,0.9952,3.2083,-0.1446,3.362
10.9320,1.3308,3.5832,-0.4827,3.853
10.9400,2.3540,3.9804,-0.5942,4.662
10.9480,3.7726,4.6559,-0.6771,6.031
10.9580,5.1145,5.6483,-0.8087,7.663
10.9640,5.2882,5.7276,-0.8869,7.846
10.9730,6.2140,6.8935,-1.0654,9.342
10.9830,6.4811,7.6767,-1.3634,10.139
10.9910,6.3458,8.1966,-1.5468,10.481
11.0000,6.4876,8.6651,-2.1297,11.032
11.0070,7.1182,9.6286,-2.5875,12.250
11.0160,8.5910,11.0094,-3.1408,14.314
11.0240,8.7865,11.1407,-3.2843,14.564
11.0320,10.7169,13.2515,-3.9670,17.498
11.0410,13.7276,16.2973,-4.3661,21.751
11.0490,17.8343,19.1604,-4.6526,26.586
11.0570,22.7834,20.2794,-3.5617,30.709
11.0690,21.8183,18.5588,-2.6938,28.770
11.0750,17.9296,16.7454,-2.6963,24.681
11.0890,18.1317,16.9738,-2.7645,24.990
11.0910,12.4880,15.5383,-3.4136,20.225
11.1000,7.8799,13.8171,-4.1197,16.431
11.1080,5.0896,10.8521,-3.5533,12.502
11.1160,2.8679,7.3301,-4.0234,8.840
11.1240,4.2082,2.5381,-1.4143,5.114
11.1330,4.3039,2.7050,-1.2850,5.243
11.1420,3.3899,-0.2843,-1.8492,3.872
11.1490,1.0048,-2.2498,-3.4388,4.230
11.1590,3.8912,-2.0812,-2.9358,5.300
11.1660,9.3431,-1.9663,-1.5977,9.680
11.1750,13.3018,-2.2203,-0.8556,13.513
11.1830,14.1735,-2.7010,-0.4076,14.434
11.1920,14.0102,-2.8971,-0.5050,14.316
11.2000,13.2958,-2.9948,-0.7797,13.651
11.2110,12.1304,-2.7158,-0.4595,12.439
11.2220,10.7288,-2.3725,0.0869,10.988
11.2330,8.8380,-1.7444,0.2336,9.011
11.2360,6.9669,-0.9079,0.2988,7.032
11.2430,5.5950,0.0715,0.5647,5.624
11.2510,5.2798,-0.2018,0.6423,5.323
11.2590,4.1363,0.7395,0.8212,4.281
11.2670,2.8544,1.4498,0.5352,3.246
11.2760,1.4767,1.6210,0.5722,2.266
11.2870,0.1411,1.5304,0.4072,1.590
11.2920,-0.7224,1.3168,-0.2887,1.529
11.3040,-0.9034,1.2348,-0.3799,1.576
11.3100,-1.3585,1.0333,-0.3583,1.744
11.3210,-1.3582,1.1467,0.0890,1.780
11.3280,-1.4319,1.2823,0.2831,1.943
11.3370,-1.5900,1.3655,0.2117,2.107
11.3480,-1.8342,1.3573,0.4074,2.318
11.3580,-1.9426,1.3376,0.5174,2.415
11.3610,-2.3110,1.4814,0.6160,2.813
11.3890,-2.8150,1.4563,0.6797,3.241
11.3910,-3.4750,1.8493,0.8435,4.026
11.3920,-4.3677,2.5222,1.0065,5.143
11.4000,-5.3524,3.4543,0.9722,6.444
11.4040,-6.4920,4.5280,0.8579,7.961
11.4200,-7.6233,5.3893,0.8759,9.377
11.4220,-8.0956,5.5085,0.9265,9.836
11.4270,-9.0595,6.1953,0.7733,11.002
11.4370,-9.5746,6.6837,0.1828,11.678
11.4460,-10.5681,7.1427,-0.3943,12.762
11.4520,-12.2871,7.6250,-0.5640,14.472
11.4690,-14.3153,8.2315,-1.1449,16.553
11.4720,-17.1070,8.3691,-1.3832,19.095
11.5020,-17.2230,8.4455,-1.3372,19.229
11.5040,-20.5814,7.8689,-1.2849,22.072
11.5080,-23.4072,6.1529,-0.9834,24.222
11.5110,-24.3591,4.0772,-0.5251,24.704
11.5130,-22.1238,2.7954,0.0880,22.300
11.5190,-20.6521,2.0799,-0.9035,20.776
11.5370,-17.3899,2.9971,-1.3933,17.701
11.5400,-17.1425,2.8877,-1.4178,17.442
11.5540,-17.0148,4.7837,-2.9246,17.915
11.5560,-12.7409,8.2318,-3.4321,15.552
11.5710,-1.0436,16.7825,3.0320,17.086
11.5730,11.2677,23.5561,4.6551,26.524
11.5770,3.1777,19.2276,4.0086,19.896
11.5860,-5.5575,8.4038,2.6710,10.423
11.6090,-5.0943,8.2834,2.6005,10.066
11.6110,-6.2304,-3.2884,1.5916,7.223
11.6130,-5.9039,-12.2272,0.7078,13.596
11.6340,-6.9349,-16.2594,0.4155,17.681
11.6370,-6.7410,-11.4668,-1.0739,13.345
11.6410,-7.3108,-4.6809,0.2401,8.684
11.6590,-8.9551,0.6862,0.8413,9.021
11.6610,-8.9475,0.6838,0.8269,9.012
11.6620,-11.3713,3.8390,-1.1733,12.059
11.6950,-14.8602,4.9785,-3.1885,15.993
11.6960,-13.7608,4.6505,-1.2373,14.578
11.6980,-8.4798,2.3838,1.1331,8.881
11.6990,-3.5251,-0.2906,1.3192,3.775
11.7170,-3.4182,-0.2762,1.3373,3.681
11.7180,-1.0807,-2.2753,0.2907,2.536
11.7200,0.2827,-2.8414,0.6961,2.939
11.7300,0.8508,-1.9592,0.5471,2.205
11.7370,0.3397,-0.6873,0.2199,0.798
11.7490,-0.5429,0.4654,-0.5163,0.882
11.7550,-1.6207,1.0092,-0.8216,2.079
11.7660,-1.5470,1.0227,-0.7967,2.018
11.7780,-2.2824,0.9180,-1.0469,2.674
11.7790,-1.9287,0.5382,-1.4153,2.452
11.7920,-0.9180,0.1380,-1.7077,1.944
11.7960,0.1867,-0.1640,-1.7672,1.785
11.8040,1.2501,-0.2894,-1.8097,2.218
11.8130,1.9991,-0.3164,-1.5798,2.568
11.8210,2.0454,-0.3032,-1.5653,2.593
11.8300,2.1946,-0.0928,-1.2963,2.551
11.8380,1.7806,-0.1163,-0.7930,1.953
11.8460,1.3129,-0.0991,-0.3490,1.362
11.8540,0.9655,-0.0029,-0.1217,0.973
11.8630,0.7576,0.0940,-0.0914,0.769
11.8730,0.6510,0.2897,-0.0228,0.713
11.8800,0.7242,0.3101,-0.0144,0.788
11.8890,0.8609,0.5084,-0.1254,1.008
11.8970,1.1772,0.6880,-0.4339,1.431
11.9100,1.8320,0.9673,-0.7450,2.202
11.9130,2.5113,1.1502,-0.9814,2.931
11.9280,2.9834,1.1795,-0.8494,3.319
11.9300,3.0962,1.2140,-0.8574,3.434
11.9380,3.4538,1.1553,-0.5546,3.684
11.9470,3.8581,1.2383,-0.0978,4.053
11.9560,3.8208,1.4047,-0.5839,4.112
11.9640,3.3034,1.7525,-0.5834,3.785
11.9720,2.4066,2.2038,-0.8439,3.371
11.9800,1.4767,2.6974,-1.0524,3.250
11.9890,1.6480,2.7637,-1.0907,3.398
11.9980,1.3515,3.3816,-0.9225,3.757
12.0060,1.6824,4.0990,-1.0394,4.551
12.0170,2.7009,5.0348,-1.1869,5.835
12.0230,4.0738,5.9351,-1.2280,7.303
12.0340,5.3129,6.9001,-1.3760,8.817
12.0390,5.9299,7.7158,-1.6280,9.866
12.0540,6.1211,7.8156,-1.7262,10.076
12.0560,6.6124,8.4554,-2.3562,10.990
12.0770,7.1840,8.9857,-2.9367,11.873
12.0790,8.1458,9.9533,-3.6858,13.379
12.0830,9.8489,11.1815,-4.3514,15.523
12.0890,11.9751,12.6093,-5.2496,18.165
12.0980,14.8341,14.7047,-5.8356,21.687
12.1060,14.9935,14.8396,-6.0379,21.943
12.1150,18.7191,17.1856,-6.4201,26.210
12.1230,22.8166,18.5312,-6.1998,30.041
12.1310,22.4286,18.0116,-4.0220,29.045
12.1390,17.6019,17.0159,-3.5262,24.735
12.1480,9.9445,15.8893,-3.4886,19.066
12.1560,5.7323,15.1526,-4.2777,16.756
12.1650,6.0012,15.4616,-4.1734,17.102
12.1730,4.3585,12.9526,-4.9474,14.534
12.1820,3.4878,10.3084,-5.4965,12.192
12.2030,5.6428,5.0168,-3.0249,8.134
12.2040,6.7221,1.7024,-2.3875,7.334
12.2100,4.0959,-0.2848,-3.9455,5.694
12.2150,4.1450,-0.1824,-3.8326,5.648
12.2240,5.4204,-0.3949,-3.9287,6.706
12.2320,9.2474,-0.6368,-3.0865,9.770
12.2410,11.9460,-1.1888,-1.9077,12.156
12.2490,12.2323,-1.7656,-1.2825,12.425
12.2580,11.2117,-1.9840,-0.7766,11.412
12.2660,9.8223,-1.9267,0.2988,10.014
12.2750,9.6462,-2.1446,0.3504,9.888
12.2820,8.2270,-1.8986,1.1335,8.519
12.2910,6.9812,-1.5507,1.3440,7.277
12.2990,6.1602,-1.0807,1.3477,6.398
12.3100,5.6458,-0.5038,1.5737,5.883
12.3190,5.0867,0.0876,1.7096,5.367
12.3330,4.1880,0.5200,1.4673,4.468
12.3340,3.8324,0.2313,1.4838,4.116
12.3420,2.6940,0.2482,1.2908,2.998
12.3540,1.5374,0.0430,1.0445,1.859
12.3580,0.7743,0.0288,0.7820,1.101
12.3670,0.4375,0.2233,0.6945,0.851
12.3740,0.1214,0.5922,0.8386,1.034
12.3830,-0.3467,0.9425,0.6883,1.218
12.3910,-0.8274,0.7675,0.7194,1.338
12.4000,-1.3184,0.9701,0.6215,1.751
12.4080,-1.6267,1.0604,0.6704,2.054
12.4170,-1.8033,1.1194,0.8639,2.292
12.4250,-2.3212,1.2641,0.8259,2.769
12.4340,-2.8431,1.6911,0.7697,3.396
12.4410,-3.4861,2.3999,0.5368,4.266
12.4620,-4.0144,2.4116,0.5959,4.721
12.4630,-4.8371,3.4115,0.5157,5.942
12.4670,-6.1589,4.4959,0.5103,7.642
12.4750,-7.7819,5.4283,0.1862,9.490
12.4840,-9.2701,5.7959,-0.2405,10.935
12.4920,-9.9769,6.0094,-0.9632,11.687
12.5010,-10.4287,6.1641,-0.9227,12.149
12.5170,-11.0047,6.8013,-1.2739,12.999
12.5180,-12.2801,7.9108,-1.2122,14.658
12.5310,-14.1612,8.6761,-1.2089,16.652
12.5340,-16.8023,8.8541,-1.8850,19.086
12.5440,-20.0945,8.2081,-2.1407,21.812
12.5510,-23.2151,6.4803,-1.6848,24.161
12.5590,-23.1588,6.4724,-1.6273,24.101
12.5670,-25.2396,4.0417,-1.6128,25.612
12.5760,-22.7160,2.3441,-0.7416,22.849
12.5990,-20.3314,1.1752,-0.2471,20.367
12.6000,-19.0291,1.1666,-1.8459,19.154
12.6010,-15.9055,2.3665,-0.7116,16.096
12.6100,-14.1811,5.6968,-5.4238,16.217
12.6180,-13.9023,5.5800,-5.4802,15.951
12.6290,-5.1421,12.5630,4.2347,14.220
12.6350,9.1938,21.4399,8.0435,24.676
12.6450,7.0301,25.8068,2.4921,26.863
12.6630,-6.0079,14.5757,1.7038,15.857
12.6640,-9.9754,1.3878,3.0445,10.522
12.6710,-8.8511,-10.3020,1.2736,13.642
12.6760,-8.4967,-10.3125,1.3007,13.425
12.6920,-8.2371,-17.5668,-0.5075,19.409
12.6930,-9.4597,-15.7923,-0.9170,18.432
12.7120,-10.1288,-7.7533,0.2813,12.759
12.7150,-11.7057,-0.6084,-0.3275,11.726
12.7270,-13.7831,3.8269,-3.0541,14.627
12.7290,-12.9356,5.7745,-3.0821,14.497
12.7380,-12.7246,5.7826,-3.0447,14.305
12.7450,-10.4064,4.9083,-0.2119,11.508
12.7600,-7.6180,2.7047,0.5554,8.103
12.7610,-4.8657,0.2910,-0.6538,4.918
12.7750,-1.9742,-1.8431,-0.0542,2.701
12.7790,0.1744,-2.6427,0.8960,2.796
12.7870,0.2521,-2.6202,0.9209,2.789
12.7960,1.0092,-1.7370,0.9638,2.228
12.8030,0.5101,-0.3464,0.1657,0.638
12.8120,-0.5169,1.1006,-0.8068,1.459
12.8190,-1.4062,1.7810,-1.6235,2.790
12.8280,-1.6732,1.6171,-1.7969,2.940
12.8360,-1.6524,0.9627,-1.8564,2.665
12.8440,-1.5989,0.9735,-1.8408,2.625
12.8530,-1.0226,0.1999,-1.7110,2.003
12.8610,-0.1179,-0.3578,-1.4670,1.515
12.8690,0.9034,-0.3662,-1.0890,1.462
12.8810,1.7308,-0.0606,-0.4780,1.797
12.8870,2.0906,0.3045,-0.2979,2.134
12.9040,1.8665,0.3378,-0.2533,1.914
12.9050,1.9213,0.3531,-0.2462,1.969
12.9110,1.5112,0.4488,-0.0606,1.578
12.9200,1.2419,0.5847,0.3202,1.409
12.9280,0.8208,0.7411,0.3454,1.159
12.9370,0.8158,0.8792,0.0951,1.203
12.9450,1.2453,0.8423,-0.2345,1.522
12.9550,2.1490,0.7876,-0.3322,2.313
12.9620,2.2371,0.8141,-0.3359,2.404
12.9710,3.4535,0.7275,-0.3824,3.550
12.9790,4.4240,0.6849,-0.4906,4.504
12.9880,4.9156,0.6676,-0.6583,5.004
12.9960,4.6933,0.6367,-0.9637,4.833
13.0050,3.7568,0.7291,-1.0348,3.964
13.0120,3.9082,0.7886,-1.0483,4.122
13.0280,2.6156,1.0873,-1.1234,3.047
13.0300,1.2894,1.6630,-1.0283,2.342
13.0510,0.4173,2.4358,-0.9436,2.645
13.0530,0.4870,3.2087,-1.0874,3.423
13.0550,1.6336,3.9818,-1.1685,4.460
13.0620,3.2097,4.7952,-1.3219,5.920
13.0710,3.3800,4.8700,-1.4070,6.093
13.0790,4.8873,5.7744,-1.5589,7.724
13.0880,5.9087,6.6860,-1.3054,9.018
13.0960,6.6236,7.6856,-1.2513,10.223
13.1050,6.9498,8.6536,-1.5739,11.210
13.1160,7.4555,9.4532,-1.9045,12.189
13.1210,8.5461,10.2776,-2.7132,13.639
13.1320,8.7329,10.4026,-2.8525,13.879
13.1390,10.3844,11.4342,-3.8176,15.911
13.1480,12.6526,13.1343,-4.6078,18.810
13.1550,15.4899,15.3005,-5.1247,22.367
13.1680,19.5163,17.6537,-5.9731,26.986
13.1840,24.7893,18.8822,-5.6266,31.666
13.1860,22.8202,18.2283,-4.6386,29.573
13.1930,22.9683,18.4025,-4.7696,29.815
13.1980,16.4654,16.9634,-5.0136,24.166
13.2060,10.8695,16.1230,-4.1964,19.892
13.2140,8.6484,15.6282,-4.2197,18.353
13.2220,7.0436,13.0350,-4.2464,15.413
13.2310,4.8118,10.2414,-5.0876,12.407
13.2390,4.3301,4.8018,-3.5578,7.380
13.2480,4.4536,5.0033,-3.3945,7.509
13.2580,2.3743,1.9197,-2.9760,4.264
13.2640,-0.8904,0.4751,-3.6681,3.804
13.2740,0.7074,0.6916,-3.4260,3.566
13.2810,5.4465,0.6830,-1.8309,5.786
13.2900,9.4499,-0.2449,-0.8341,9.490
13.2980,9.3501,-0.3882,-0.9158,9.403
13.3250,10.8148,-1.7336,-0.0905,10.953
13.3260,10.7710,-2.9963,-0.2641,11.183
13.3270,10.4116,-3.6714,-0.6936,11.062
13.3320,9.9300,-3.9371,-0.8553,10.716
13.3410,9.2305,-3.5329,-0.9114,9.925
13.3480,8.4646,-2.5798,-0.7237,8.879
13.3580,8.2030,-2.8515,-0.6613,8.710
13.3650,7.5064,-1.7371,0.1067,7.706
13.3740,6.6708,-0.7421,0.7151,6.750
13.3830,5.0946,0.1015,0.7711,5.154
13.3900,2.8792,0.3859,0.1191,2.907
13.3990,0.6909,0.3866,-0.1635,0.808
13.4070,-0.8509,0.2177,-0.3378,0.941
13.4230,-1.2434,-0.0232,-0.3068,1.281
13.4410,-1.6239,-0.0585,-0.3057,1.653
13.4420,-1.4051,-0.1203,-0.0381,1.411
13.4430,-0.9335,-0.2603,0.1566,0.982
13.4490,-0.4967,-0.2584,0.2081,0.597
13.4570,-0.2284,-0.0738,0.2156,0.323
13.4660,-0.1646,0.1771,0.2171,0.325
13.4740,-0.6716,0.0841,0.2882,0.736
13.4830,-1.1213,0.6458,0.4059,1.356
13.4910,-2.3780,1.2339,0.3697,2.704
13.4990,-4.2612,1.9462,0.2343,4.690
13.5070,-5.9499,2.9781,0.0373,6.654
13.5170,-7.3289,4.3297,-0.1442,8.514
13.5240,-7.8462,4.3959,-0.0759,8.994
13.5330,-8.8273,5.7039,-0.2251,10.512
13.5420,-9.2487,6.1168,-0.4517,11.098
13.5680,-9.6894,5.8286,-1.0095,11.352
13.5690,-10.1548,5.3817,-1.5852,11.601
13.5710,-10.8974,5.8867,-1.4167,12.466
13.5900,-12.2113,7.5816,-1.3551,14.437
13.5920,-12.4981,7.7292,-1.3047,14.753
13.5940,-15.3321,9.4229,-1.9213,18.098
13.6070,-19.9472,10.0307,-2.2889,22.444
13.6090,-24.6378,8.5154,-2.1947,26.160
13.6160,-27.5899,5.6563,-1.4010,28.199
13.6260,-25.1626,3.2644,-0.4910,25.378
13.6330,-20.6347,2.3663,1.1345,20.801
13.6420,-20.3967,2.2698,1.1268,20.553
13.6500,-16.0396,4.1201,0.3928,16.565
13.6590,-13.7299,5.3344,0.7036,14.747
13.6670,-8.8678,7.5397,-0.5585,11.653
13.6760,0.1074,14.9682,4.1368,15.530
13.6900,15.9680,22.6726,9.0013,29.156
13.6940,3.9841,20.7127,5.6944,21.848
13.7020,4.4145,20.5447,5.5412,21.732
13.7180,-9.4400,8.9215,1.4755,13.072
13.7190,-14.1219,-3.0394,-0.7413,14.464
13.7290,-12.4489,-12.6312,-1.3086,17.783
13.7440,-10.1644,-16.5118,-0.4446,19.395
13.7450,-9.4933,-10.6888,0.5085,14.305
13.7600,-10.7527,-3.7190,1.0385,11.425
13.7610,-10.4887,-3.7077,1.0434,11.174
13.7700,-11.7633,1.0652,0.1828,11.813
13.7760,-11.3657,3.4457,-2.2459,12.087
13.7850,-10.5293,4.2011,-2.1236,11.534
13.7930,-10.2209,3.7822,0.7788,10.926
13.8010,-8.4531,2.0334,0.7464,8.726
13.8100,-8.3101,2.0490,0.7673,8.593
13.8270,-5.3119,-0.0691,-0.2806,5.320
13.8280,-2.1632,-1.6361,0.5761,2.773
13.8350,-0.1451,-2.0266,0.7809,2.177
13.8440,0.8237,-1.4579,0.4766,1.741
13.8520,0.5512,-0.3817,-0.0006,0.670
13.8680,-0.3075,0.7515,-0.5755,0.995
13.8680,-0.2449,0.7668,-0.5448,0.972
13.8780,-1.1047,1.3491,-1.2219,2.129
13.8850,-1.1855,1.3417,-1.9407,2.640
13.8940,-0.8605,0.9609,-2.3683,2.697
13.9020,-0.4031,0.5211,-2.3675,2.457
13.9110,0.0887,0.0223,-1.8810,1.883
13.9190,0.5003,-0.3392,-1.6149,1.724
13.9270,0.5400,-0.3282,-1.6063,1.726
13.9360,1.2059,-0.4348,-1.3846,1.887
13.9450,1.7938,-0.3842,-1.1054,2.142
13.9520,1.8174,-0.2735,-0.5523,1.919
13.9610,1.3567,-0.1029,-0.0787,1.363
13.9690,0.9992,0.1863,0.1394,1.026
13.9790,0.9782,0.5738,0.0632,1.136
13.9860,1.0384,0.5895,0.0639,1.196
14.0060,1.2419,0.9788,-0.0561,1.582
14.0070,1.8429,1.2321,-0.2962,2.237
14.0110,2.9990,1.2525,-0.7543,3.336
14.0210,4.2415,1.0216,-1.1185,4.504
14.0280,5.2021,0.8351,-1.0357,5.370
14.0370,5.5927,0.7150,-0.4469,5.656
14.0440,5.7216,0.7573,-0.4700,5.791
14.0550,5.4696,0.9819,-0.0826,5.558
14.0610,4.5824,1.3105,0.1872,4.770
14.0710,3.3329,1.7424,0.1811,3.765
14.0780,2.0739,2.1209,0.0744,2.967
14.0890,0.8403,2.5034,-0.2121,2.649
14.0950,1.0187,2.5755,-0.2485,2.781
14.1040,0.1373,2.9042,-0.4661,2.945
14.1120,-0.2185,3.2723,-0.7690,3.369
14.1220,0.2820,4.1086,-0.9673,4.230
14.1330,1.7750,5.1582,-1.2562,5.598
14.1470,3.6376,6.1894,-1.5942,7.354
14.1490,5.1672,7.0674,-1.9616,8.972
14.1540,5.3306,7.1499,-2.0606,9.153
14.1630,6.4621,7.9091,-2.3008,10.469
14.1710,6.9298,8.6752,-2.8029,11.452
14.1810,7.3590,9.5841,-3.3152,12.530
14.1870,8.0784,10.7309,-3.4473,13.867
14.1980,9.7903,11.8400,-3.7959,15.825
14.2040,12.6050,12.9863,-3.9249,18.518
14.2130,12.7388,13.0917,-4.1475,18.732
14.2210,16.7727,13.4509,-4.2298,21.912
14.2300,20.7665,13.1644,-4.8797,25.067
14.2370,25.2592,13.2781,-4.7645,28.932
14.2460,23.2572,14.2667,-4.0770,27.587
14.2550,16.5791,15.4866,-4.7508,23.179
14.2830,11.4760,17.3724,-4.8970,21.389
14.2840,11.7455,17.6632,-4.8321,21.755
14.2860,10.0136,17.8069,-5.3191,21.110
14.2890,8.4617,14.5999,-5.3836,17.713
14.2990,5.6410,11.0863,-5.8117,13.730
14.3050,4.7208,5.4893,-4.3162,8.429
14.3260,3.5997,2.5741,-3.8872,5.890
14.3270,3.7035,2.7644,-3.6945,5.917
14.3300,0.4225,1.5881,-4.2392,4.547
14.3400,1.6864,2.2970,-3.9980,4.910
14.3470,6.0563,2.9206,-2.5490,7.191
14.3570,9.5430,2.2063,-1.7441,9.949
14.3640,10.4261,0.7065,-1.1719,10.516
14.3730,10.0580,-1.0694,-1.2186,10.188
14.3810,9.9469,-1.2202,-1.2646,10.101
14.3890,9.4016,-2.6325,-1.4436,9.869
14.3970,8.8912,-3.5410,-1.2104,9.647
14.4170,8.1213,-3.8450,-1.2162,9.067
14.4180,7.1658,-3.4890,-0.9996,8.033
14.4260,6.3224,-2.7187,-0.3544,6.891
14.4310,5.6113,-2.0381,0.0330,5.970
14.4390,5.3256,-2.3238,0.0491,5.811
14.4480,4.5081,-1.9036,0.3627,4.907
14.4560,3.7841,-1.6197,0.1740,4.120
14.4660,3.0007,-1.2695,-0.2585,3.268
14.4730,2.3532,-0.8321,-0.5265,2.551
14.4820,1.9384,-0.2673,-0.5954,2.045
14.4890,1.5211,0.3879,-0.6833,1.712
14.4990,1.0799,0.1560,-0.6316,1.261
14.5060,0.6786,0.7661,-0.6520,1.214
14.5150,0.0658,1.1432,-0.6634,1.323
14.5230,-0.4823,1.3483,-0.5875,1.548
14.5350,-0.9249,1.3441,-0.4660,1.697
14.5420,-1.2634,1.3469,-0.3010,1.871
14.5530,-1.4561,1.6127,-0.1918,2.181
14.5570,-1.9918,1.5551,-0.0999,2.529
14.5650,-2.4311,2.1939,-0.0856,3.276
14.5730,-3.2869,3.2538,-0.4615,4.648
14.5820,-4.3763,4.5776,-0.6223,6.363
14.5900,-5.8298,5.9879,-0.5509,8.375
14.5990,-7.2529,7.0921,-0.5009,10.156
14.6070,-7.7601,7.2043,-0.4123,10.597
14.6150,-8.6593,7.6155,-0.5982,11.547
14.6240,-9.8205,7.5562,-0.7040,12.411
14.6330,-11.6314,7.9612,-1.3003,14.155
14.6570,-14.3083,8.8343,-0.6954,16.830
14.6660,-17.8964,9.3975,-0.1472,20.214
14.6670,-21.0274,9.7944,-0.4458,23.201
14.6680,-21.1527,9.8785,-0.3923,23.349
14.6740,-23.5327,9.4630,0.3068,25.366
14.6830,-25.5544,7.8429,0.4756,26.735
14.6990,-25.5414,5.0222,1.2094,26.059
14.7000,-21.8477,3.1409,1.8117,22.147
14.7160,-19.6886,1.3424,1.3118,19.778
14.7180,-18.1382,1.2942,-1.3390,18.234
14.7250,-17.8482,1.1705,-1.4259,17.943
14.7330,-14.2628,0.5927,-1.5681,14.361
14.7410,-8.7604,2.9877,-2.9083,9.702
14.7490,-1.6208,9.9958,4.5290,11.093
14.7590,16.4428,20.1952,15.0496,30.078
14.7660,8.3245,25.2114,4.3586,26.906
14.7830,-9.0292,16.1895,3.1264,18.799
14.7840,-8.4997,16.0625,3.0617,18.429
14.7910,-12.3828,2.7645,3.3547,13.124
14.8110,-9.5424,-10.0622,1.4574,13.944
14.8120,-9.1889,-18.2838,-1.2396,20.501
14.8200,-15.2546,-15.3417,-0.0280,21.635
14.8290,-15.4660,-6.1550,0.7897,16.664
14.8500,-13.6150,0.5105,-1.2015,13.677
14.8510,-13.3696,0.5288,-1.1865,13.433
14.8520,-12.2621,4.2883,-0.8088,13.016
14.8590,-9.1884,4.8514,-1.4391,10.490
14.8700,-6.3583,3.1630,-0.7704,7.143
14.8780,-4.6395,1.1465,-0.2184,4.784
14.8910,-3.2619,-0.4346,0.0569,3.291
14.8920,-3.1537,-0.4084,0.0967,3.181
14.9020,-1.3567,-1.3626,0.7014,2.047
14.9090,-0.6291,-1.5529,0.9696,1.936
14.9180,-1.0840,-0.7257,0.3750,1.357
14.9280,-2.2682,0.2946,0.0150,2.287
14.9340,-3.3435,1.1143,-0.6027,3.575
14.9440,-3.5456,1.3620,-1.1839,3.978
14.9510,-3.5043,1.3712,-1.1613,3.938
14.9780,-2.7084,1.2600,-1.6132,3.395
14.9790,-1.5055,0.9127,-1.5599,2.352
14.9800,0.0652,0.4281,-1.2948,1.365
14.9840,1.4562,-0.0163,-0.9715,1.751
14.9940,2.4752,-0.1845,-0.7446,2.591
15.0010,3.1236,-0.1749,-0.5943,3.184
15.0110,3.1480,-0.1637,-0.5787,3.205
15.0180,3.4925,0.1828,-0.3255,3.512
15.0270,3.2761,0.6481,-0.2885,3.352
15.0350,2.8538,0.9778,-0.3507,3.037
15.0440,3.0483,1.0549,-0.6495,3.290
15.0520,3.7232,0.9192,-1.2061,4.020
15.0600,4.4927,0.5533,-1.7682,4.860
15.0700,4.5914,0.5839,-1.7680,4.955
15.0970,4.8211,-0.0462,-1.6933,5.110
15.0990,4.4934,-0.4941,-1.2102,4.680
15.1000,3.7234,-0.2908,-0.6107,3.784
15.1130,2.4133,0.0345,-0.0896,2.415
15.1140,1.0110,0.4409,0.3122,1.146
15.1200,1.1574,0.4962,0.3000,1.295
15.1270,0.0880,0.7683,0.5404,0.943
15.1360,-0.3750,0.9232,0.4247,1.083
15.1440,-0.3889,1.1174,0.4011,1.249
15.1530,0.0662,1.3902,0.0962,1.395
15.1610,1.0889,1.9376,-0.3547,2.251
15.1700,2.5029,2.9746,-0.5615,3.928
15.1770,2.6460,3.0341,-0.6209,4.073
15.1860,4.1279,4.3333,-1.1361,6.092
15.1940,5.0860,5.5981,-1.6157,7.734
15.2030,5.6019,6.8891,-1.5905,9.021
15.2110,5.7154,7.8741,-1.5328,9.850
15.2270,5.8157,8.6504,-1.3465,10.510
15.2290,6.2570,9.2591,-1.2517,11.245
15.2400,6.4475,9.3660,-1.3677,11.453
15.2500,6.9525,10.0084,-1.5986,12.291
15.2540,8.2394,10.7930,-2.1059,13.741
15.2640,10.1856,11.6987,-2.4186,15.699
15.2710,12.5510,12.6641,-2.9326,18.070
15.2790,15.6432,13.8626,-3.5868,21.207
15.2870,19.2823,15.4300,-4.2906,25.066
15.2950,19.3963,15.5453,-4.5302,25.267
15.3030,24.1012,16.9563,-3.9519,29.732
15.3120,24.2229,17.7529,-3.2508,30.207
15.3210,18.6781,17.5294,-3.6896,25.880
15.3290,12.6370,17.1262,-4.2415,21.702
15.3370,10.3721,17.0205,-4.5742,20.450
15.3460,8.3652,14.4045,-4.6491,17.294
15.3540,8.5697,14.6830,-4.4685,17.578
15.3650,6.4957,11.7184,-4.7845,14.227
15.3710,5.8490,6.6578,-3.7710,9.631
15.3790,4.0664,2.5544,-3.0905,5.711
15.3870,-1.1582,-0.0184,-3.7390,3.914
15.3960,-1.0874,-0.1651,-4.2692,4.409
15.4050,-1.0811,-0.1491,-4.2061,4.345
15.4120,3.8737,0.2993,-2.7193,4.742
15.4210,9.3286,0.0279,-1.6644,9.476
15.4290,11.7792,-1.0117,-1.2237,11.886
15.4380,11.9944,-2.0681,-1.4108,12.253
15.4460,11.2682,-2.6900,-2.0105,11.758
15.4550,10.4394,-2.9027,-2.0663,11.031
15.4630,10.2311,-3.1553,-2.0689,10.905
15.4720,9.3891,-2.8764,-1.8217,9.987
15.4800,8.4559,-2.3047,-1.4699,8.887
15.4980,7.5549,-1.3699,-0.9793,7.740
15.4990,6.8063,-0.4372,-0.6044,6.847
15.5050,5.5665,0.3617,-0.7562,5.629
15.5130,3.6677,0.6050,-0.8852,3.821
15.5220,3.3059,0.3352,-0.8541,3.431
15.5310,1.2825,0.2156,-0.8788,1.570
15.5380,-0.1928,0.3024,-1.0206,1.082
15.5490,-0.9904,0.4767,-0.9662,1.463
15.5550,-1.2601,0.7846,-0.6997,1.641
15.5630,-1.2592,1.1098,-0.5884,1.779
15.5720,-0.8459,1.4375,-0.4870,1.738
15.5820,-1.3510,1.2807,-0.4293,1.910
15.5880,-0.7689,1.5442,-0.2966,1.750
15.5970,-0.3141,1.8364,0.0632,1.864
15.6050,-0.5502,2.3148,0.1181,2.382
15.6140,-1.2331,2.9797,0.0426,3.225
15.6220,-2.2444,3.8492,-0.0880,4.457
15.6340,-3.3488,4.8634,-0.1586,5.907
15.6390,-3.8586,4.9049,-0.0569,6.241
15.6600,-5.2645,6.1673,-0.3929,8.118
15.6610,-7.1880,7.2764,-0.8936,10.267
15.6640,-9.6572,7.3671,-1.2098,12.207
15.6730,-11.5956,6.2440,-1.9671,13.316
15.6820,-13.1392,5.7082,-2.9050,14.617
15.7030,-13.5318,5.8691,-2.8452,15.022
15.7040,-15.3967,6.6925,-2.3347,16.950
15.7110,-18.0365,8.1567,-1.2340,19.834
15.7150,-20.2489,9.1221,-1.0553,22.234
15.7230,-22.2064,8.5436,-1.0559,23.817
15.7310,-23.5555,6.6326,-1.1868,24.500
15.7400,-25.1176,4.1700,-0.4970,25.466
15.7480,-24.9567,4.1043,-0.4974,25.297
15.7570,-24.0756,2.3652,0.3214,24.194
15.7650,-22.0467,1.5369,0.3649,22.103
15.7770,-21.7303,1.2304,-0.3608,21.768
15.7860,-17.2586,2.6713,2.0800,17.587
15.8010,-13.2665,4.9182,-0.3104,14.152
15.8020,-5.1487,9.7083,6.5628,12.800
15.8130,-4.9357,9.6135,6.4671,12.594
15.8180,9.6790,19.4826,10.0632,23.969
15.8410,15.3706,24.8504,6.5189,29.938
15.8430,2.8085,16.3167,1.2484,16.604
15.8440,-5.0222,3.8415,0.3538,6.333
15.8510,-7.8382,-7.8647,1.4412,11.197
15.8570,-10.8890,-15.1157,0.1825,18.630
15.8800,-10.5715,-15.0934,0.2195,18.429
15.8820,-15.2590,-13.8468,-0.8311,20.622
15.8830,-19.2692,-6.5662,-1.2016,20.393
15.9040,-17.9312,-0.0975,-1.6671,18.009
15.9050,-14.1278,3.6211,-2.7847,14.848
15.9070,-10.0216,4.6721,-1.2915,11.132
15.9160,-9.8589,4.6828,-1.2656,10.988
15.9250,-6.0922,3.4021,0.2107,6.981
15.9430,-4.0404,1.1864,0.5136,4.242
15.9550,-2.9381,-0.5144,-0.0218,2.983
15.9560,-1.2851,-1.4292,-0.0828,1.924
15.9580,-0.1214,-1.4438,1.0494,1.789
15.9670,-0.2991,-0.5989,1.3700,1.525
15.9760,-0.2267,-0.5783,1.3952,1.527
15.9830,-1.3729,0.3428,0.8170,1.634
15.9910,-2.4045,1.2025,-0.2697,2.702
16.0040,-2.7375,1.6277,-1.0261,3.346
16.0110,-2.4507,1.6390,-1.5500,3.331
16.0170,-1.8186,1.1198,-1.6267,2.685
16.0250,-0.7621,0.5022,-1.5502,1.799
16.0330,-0.7288,0.5112,-1.5346,1.774
16.0420,0.6532,0.1085,-1.4420,1.587
16.0500,2.1906,0.0790,-0.9982,2.409
16.0590,3.2222,0.1300,-0.4946,3.263
16.0670,3.2216,0.1836,-0.3216,3.243
16.0760,2.3255,0.1807,-0.3405,2.357
16.0840,1.4156,0.4539,0.0353,1.487
16.0930,1.4683,0.4725,0.0559,1.543
16.1010,0.9565,0.7850,-0.1435,1.246
16.1100,0.9588,0.9997,-0.3862,1.438
16.1180,1.7707,0.9805,-0.7314,2.152
16.1270,3.1034,0.8668,-1.0046,3.375
16.1340,4.7983,0.7374,-1.1266,4.984
16.1570,5.8009,0.4571,-0.9779,5.900
16.1590,5.9174,0.4970,-0.9891,6.020
16.1660,5.7128,0.2103,-0.8041,5.773
16.1670,4.4413,0.4200,-0.5379,4.493
16.1770,2.5691,0.8093,-0.3311,2.714
16.1870,0.8784,1.3574,-0.2253,1.632
16.1930,-0.1430,1.6915,-0.2991,1.724
16.2020,0.0110,1.7521,-0.3210,1.781
16.2090,-0.3851,1.8321,-0.4124,1.917
16.2180,-0.0581,1.9709,-0.4352,2.019
16.2270,1.0901,2.3846,-0.7029,2.715
16.2350,2.8249,3.2105,-1.0205,4.396
16.2440,4.6973,4.4501,-1.1891,6.579
16.2520,6.3633,5.8141,-1.5035,8.750
16.2600,6.5291,5.8933,-1.5893,8.938
16.2800,7.5473,7.3937,-1.7161,10.704
16.2810,7.8686,8.8640,-1.7674,11.984
16.2850,7.8826,10.1852,-2.0218,13.037
16.2940,8.0209,11.2801,-2.5034,14.066
16.3020,8.9839,12.2831,-2.9480,15.501
16.3110,10.5897,12.9768,-2.9736,17.011
16.3190,10.7778,13.1063,-3.1653,17.261
16.3290,13.0672,13.7256,-3.4454,19.262
16.3360,16.3510,14.5162,-3.5755,22.155
16.3440,20.6052,14.9282,-4.0070,25.758
16.3520,24.3899,14.7551,-3.2232,28.687
16.3610,21.2485,14.1135,-3.0091,25.685
16.3690,14.7970,13.6085,-4.1020,20.518
16.3780,15.0241,13.8708,-4.1223,20.859
16.3870,12.4302,15.2211,-4.1744,20.090
16.3950,11.4495,16.5825,-4.2692,20.598
16.4030,9.0122,15.1687,-5.3700,18.443
16.4130,5.4103,12.2370,-6.5660,14.904
16.4240,3.5126,5.2302,-5.1435,8.133
16.4400,1.5494,2.0570,-5.1544,5.762
16.4410,1.6349,2.2273,-4.9554,5.674
16.4450,-0.5009,1.3583,-4.4330,4.663
16.4530,1.4396,2.2349,-3.3196,4.253
16.4620,6.1571,2.6328,-1.3960,6.840
16.4720,9.6034,1.7917,-0.2056,9.771
16.4790,9.9077,0.1247,0.2529,9.912
16.4880,9.8077,-0.0273,0.1588,9.809
16.4950,9.3546,-1.6905,-0.2262,9.509
16.5040,9.0737,-2.5945,-0.8576,9.476
16.5120,9.0601,-2.7407,-0.5027,9.479
16.5200,8.9929,-2.5460,-0.1990,9.349
16.5300,8.6046,-1.9966,-0.2506,8.837
16.5410,8.2907,-1.3583,0.4107,8.411
16.5470,8.0106,-1.6471,0.4508,8.191
16.5710,7.4728,-1.0148,0.9314,7.599
16.5730,6.5584,-0.5969,1.0347,6.666
16.5730,4.9024,-0.4633,1.0893,5.043
16.5790,2.9002,-0.5520,1.1485,3.168
16.5880,1.3701,-0.3758,0.3268,1.458
16.5970,0.3462,0.1804,-0.1900,0.434
16.6050,-0.0811,-0.0608,-0.1392,0.172
16.6130,-1.0396,0.4761,-0.0102,1.143
16.6250,-2.1733,0.7170,0.3816,2.320
16.6310,-2.6773,0.6666,0.4600,2.797
16.6380,-2.5575,0.5418,0.6055,2.683
16.6480,-1.7511,0.6009,0.9158,2.066
16.6550,-0.9791,1.1403,1.1764,1.909
16.6720,-1.5278,1.0644,1.2283,2.231
16.6740,-1.4330,2.1564,1.2262,2.865
16.7160,-2.3062,3.6308,1.0119,4.419
16.7180,-3.4719,5.3500,1.0890,6.470
16.7200,-4.6530,7.1367,1.0628,8.586
16.7220,-6.2541,8.6569,0.8559,10.714
16.7230,-7.0974,9.0683,0.4697,11.525
16.7250,-7.6867,9.1920,0.5104,11.993
16.7310,-9.1968,8.3934,0.0561,12.451
16.7390,-11.3488,7.3151,-1.3356,13.568
16.7580,-14.0091,7.2567,-1.8645,15.887
16.7590,-17.6551,8.1829,-1.8499,19.547
16.7810,-21.0922,9.6452,-2.2237,23.299
16.7830,-21.1730,9.6990,-2.1759,23.390
16.7970,-24.2911,9.4690,-2.1487,26.160
16.7980,-26.5362,6.9223,-2.4299,27.532
16.8000,-25.0081,4.1471,-1.6740,25.405
16.8200,-21.0733,2.6484,-0.2173,21.240
16.8220,-18.4084,2.5992,-0.9587,18.616
16.8230,-16.4035,2.1896,-0.6985,16.564
16.8310,-16.0936,2.0698,-0.7665,16.244
16.8410,-15.6532,3.7099,-4.6469,16.745
16.8480,-8.4050,8.1457,3.7549,12.292
16.8720,3.7611,15.5293,10.2943,19.007
16.8730,4.4878,22.5725,4.8178,23.513
16.8820,-3.5840,16.6361,0.0172,17.018
16.8840,-8.2705,6.5672,1.0812,10.616
16.8900,-7.8321,6.5073,1.0792,10.240
16.8980,-7.6037,-4.5279,2.3656,9.160
16.9070,-8.5667,-11.8629,0.7967,14.654
16.9350,-10.5938,-12.5954,0.1656,16.459
16.9370,-11.9109,-6.9191,-0.2125,13.776
16.9390,-13.3046,-1.6990,-1.2449,13.470
16.9410,-13.0224,1.9498,-2.3584,13.377
16.9500,-12.7843,1.9738,-2.3156,13.141
16.9570,-11.2839,3.6428,-2.0790,12.038
16.9660,-9.4581,3.5272,-0.3186,10.099
16.9730,-6.6191,2.0800,-0.0710,6.939
16.9890,-4.4907,0.3999,-0.9382,4.605
16.9910,-2.2004,-0.8464,-1.3733,2.728
17.0360,-2.1007,-0.8199,-1.3413,2.624
17.0380,-0.0369,-1.4421,0.0156,1.443
17.0390,0.6647,-1.0859,0.7202,1.463
17.0440,-0.1096,-0.3197,0.6631,0.744
17.0450,-0.8663,0.4643,0.2545,1.015
17.0470,-1.3321,1.0892,0.1580,1.728
17.0520,-1.1951,1.3986,-0.1549,1.846
17.0590,-1.1405,1.4130,-0.1351,1.821
17.0660,-0.8952,1.2501,-0.7819,1.725
17.0840,-0.7104,0.9305,-1.1751,1.659
17.0850,-0.2337,0.6105,-1.3759,1.523
17.0910,0.5534,0.3883,-1.4812,1.628
17.1260,1.2023,0.2840,-1.4508,1.906
17.1280,1.7740,0.1415,-1.1086,2.097
17.1290,1.8180,0.1564,-1.1011,2.131
17.1290,1.9033,0.0355,-0.9946,2.148
17.1340,1.8927,-0.0644,-0.5346,1.968
17.1420,1.5714,-0.0064,-0.3102,1.602
17.1500,1.3120,0.3073,-0.0075,1.348
17.1590,1.2122,0.5820,0.0973,1.348
17.1660,1.6646,0.8181,0.0617,1.856
17.1760,1.7300,0.8403,0.0635,1.924
17.1840,2.5485,1.0225,-0.1328,2.749
17.1930,3.4582,1.0141,-0.2728,3.614
17.2020,4.3396,0.8737,-0.6509,4.474
17.2090,5.0177,0.6807,-0.7390,5.117
17.2170,5.2779,0.6511,-0.7532,5.371
17.2390,4.7862,0.9023,-0.3589,4.884
17.2430,4.9312,0.9636,-0.3779,5.039
17.2450,4.0840,1.6179,-0.3779,4.409
17.2570,3.0289,2.2767,-0.6726,3.848
17.2590,1.8432,2.8408,-0.9729,3.523
17.2680,1.0525,3.3480,-1.4375,3.792
17.2760,1.1835,3.9152,-1.5386,4.370
17.2840,1.3526,3.9934,-1.5929,4.507
17.2930,1.9731,4.8180,-1.8374,5.521
17.3010,3.0252,5.8604,-1.3102,6.724
17.3090,4.2162,6.9460,-0.9313,8.179
17.3180,5.5658,8.0366,-0.7590,9.805
17.3260,6.7997,8.9968,-1.2192,11.343
17.3350,7.5488,9.8686,-1.8609,12.563
17.3430,7.7320,9.9844,-1.9836,12.783
17.3540,8.1096,10.9283,-2.4132,13.821
17.3660,8.8341,12.2657,-3.2105,15.453
17.3730,10.9975,14.0901,-3.3308,18.182
17.3790,13.9660,15.4382,-2.9014,21.019
17.3860,17.8719,16.5261,-3.2806,24.562
17.3940,23.0253,16.6298,-3.4920,28.617
17.4020,23.1049,16.7322,-3.7330,28.770
17.4120,26.6627,15.9571,-2.3979,31.165
17.4180,21.7415,16.0742,-2.0991,27.120
17.4270,14.3815,16.4757,-2.9954,22.074
17.4360,10.6291,17.4725,-4.4737,20.935
17.4440,8.0671,15.6757,-4.9310,18.306
17.4520,6.1729,12.8639,-5.3650,15.244
17.4610,6.3543,13.1389,-5.1436,15.475
17.4690,6.0009,8.6505,-4.3400,11.388
17.4780,4.9850,4.3439,-2.3983,7.034
17.4860,0.7191,1.6838,-2.7494,3.303
17.4940,1.5777,1.8501,-3.2866,4.088
17.5020,6.4678,2.5754,-2.2561,7.318
17.5140,11.4400,2.5144,-1.5952,11.821
17.5240,11.3464,2.3645,-1.6805,11.711
17.5430,12.7420,1.3668,-1.5649,12.910
17.5450,12.5327,0.3164,-1.8350,12.670
17.5460,11.3976,-0.5432,-2.1001,11.602
17.5540,9.8888,-1.1475,-1.7651,10.110
17.5610,8.5917,-1.3991,-1.4104,8.818
17.5700,8.3673,-1.6661,-1.3790,8.642
17.5780,7.3513,-1.6157,-1.2581,7.631
17.5860,6.7337,-1.1913,-0.7608,6.880
17.5940,6.2851,-0.6351,-0.2534,6.322
17.6050,5.4431,-0.2507,-0.3122,5.458
17.6120,4.0154,-0.2481,-0.4211,4.045
17.6240,2.3952,-0.3311,-0.6953,2.516
17.6290,2.0097,-0.5977,-0.6697,2.201
17.6370,0.6781,-0.3843,-0.8408,1.146
17.6450,-0.2098,0.1334,-0.6455,0.692
17.6560,-0.6683,0.7265,-0.4337,1.078
17.6670,-0.9724,1.1623,-0.1402,1.522
17.6800,-1.3151,1.3861,0.0059,1.911
17.6820,-1.5926,1.4215,0.0651,2.136
17.6870,-2.1169,1.2896,0.1129,2.481
17.6990,-2.1419,1.4417,0.2058,2.590
17.7040,-2.3709,1.7414,0.3213,2.959
17.7130,-3.0174,2.5214,0.3190,3.945
17.7210,-4.0391,3.6441,0.1567,5.442
17.7290,-5.2188,5.0698,0.1058,7.277
17.7380,-6.6834,6.7186,-0.1700,9.478
17.7460,-7.2193,6.7887,-0.1404,9.911
17.7540,-8.9340,7.6691,-0.5272,11.786
17.7630,-10.1015,7.3995,-1.2663,12.586
17.7710,-11.3778,6.5647,-2.6857,13.408
17.7960,-12.9904,6.3743,-3.6041,14.912
17.7980,-15.6770,7.1044,-3.3039,17.526
17.7990,-15.9579,8.1801,-2.8317,18.154
17.8170,-19.2566,8.2102,-2.7877,21.119
17.8180,-22.4477,8.6968,-3.1322,24.276
17.8250,-25.5270,7.5577,-2.3958,26.730
17.8300,-27.5001,5.5753,-1.7990,28.117
17.8380,-24.6670,4.0959,-1.2527,25.036
17.8470,-20.0111,3.3542,0.0566,20.290
17.8570,-19.7818,3.2567,0.0432,20.048
17.8630,-18.3501,2.1816,0.2223,18.481
17.8720,-14.4785,3.2412,0.4979,14.845
17.8800,-12.6933,4.0825,-0.1554,13.335
17.8890,-7.2961,6.8422,3.0392,10.454
17.8970,2.5667,14.3358,8.4114,16.818
17.9120,9.4577,22.3050,9.0088,25.848
17.9140,9.7056,22.1789,8.8480,25.776
17.9530,-0.9123,18.9412,2.6732,19.151
17.9550,-10.2375,7.8820,0.5118,12.930
17.9570,-11.8107,-4.1732,1.1590,12.580
17.9590,-10.3181,-13.1257,-0.4772,16.703
17.9600,-11.2419,-15.2556,-1.6565,19.023
17.9650,-12.4862,-8.4876,-1.9468,15.223
17.9870,-12.2151,-8.4609,-1.8985,14.980
17.9890,-13.0512,-2.2650,-1.3242,13.312
18.0190,-12.6153,1.7694,-2.8282,13.049
18.0200,-12.2250,4.4881,-3.2200,13.415
18.0220,-11.1365,5.5387,0.0897,12.438
18.0230,-9.4160,4.1012,0.7737,10.300
18.0240,-6.2708,1.7061,0.4302,6.513
18.0370,-6.1494,1.7229,0.4510,6.402
18.0390,-2.5171,-0.5890,1.0886,2.805
18.0730,0.5536,-2.0155,0.6869,2.200
18.0740,2.0865,-2.3033,0.3082,3.123
18.0820,2.0830,-1.2792,-0.0069,2.444
18.0830,1.1768,-0.0030,-0.3837,1.238
18.0830,1.2508,0.0181,-0.3527,1.300
18.1020,0.0699,1.0178,-1.0868,1.491
18.1030,-0.8762,1.5255,-1.6279,2.397
18.1060,-1.5529,1.4039,-1.6456,2.663
18.1150,-1.6470,0.8897,-1.5293,2.417
18.1260,-0.9470,0.3940,-1.2191,1.593
18.1310,-0.0004,-0.0436,-0.7750,0.776
18.1410,0.0429,-0.0304,-0.7635,0.765
18.1490,1.0860,-0.3492,-0.2032,1.159
18.1590,2.0525,-0.3722,-0.0344,2.086
18.1650,2.6497,-0.1386,0.1756,2.659
18.1740,2.4280,0.1747,0.5249,2.490
18.1820,1.7810,0.5482,0.8550,2.050
18.1990,1.0637,0.8061,0.7932,1.553
18.2000,1.1360,0.8307,0.8089,1.623
18.2270,0.8608,0.9548,0.2736,1.314
18.2270,1.2171,1.0021,-0.2642,1.599
18.2290,2.1261,0.9925,-0.8641,2.500
18.2330,3.1999,1.0646,-1.2740,3.605
18.2430,4.3202,1.2772,-1.4149,4.722
18.2500,4.7647,1.4357,-1.4617,5.187
18.2590,4.8861,1.4820,-1.4716,5.314
18.2660,4.3332,1.4368,-0.2099,4.570
18.2750,3.3221,1.1638,-0.3021,3.533
18.2830,2.2204,1.0330,-0.5146,2.502
18.2910,1.2803,1.4153,-0.2809,1.929
18.3010,0.8120,2.1899,-0.8605,2.489
18.3080,1.1657,3.1791,-1.0021,3.531
18.3170,1.3245,3.2483,-1.0606,3.665
18.3240,2.3850,4.3187,-1.0730,5.049
18.3560,3.8009,5.5104,-0.9371,6.759
18.3590,4.8294,6.5704,-0.9865,8.214
18.3610,5.7457,7.4809,-1.0229,9.488
18.3630,6.1602,8.5184,-1.2207,10.583
18.3860,6.3441,8.6239,-1.3276,10.788
18.3880,6.3355,9.4040,-1.8151,11.483
18.3900,6.5632,10.0738,-2.2922,12.240
18.3930,7.3338,10.9815,-3.0377,13.550
18.4020,8.9569,11.8896,-3.0452,15.194
18.4090,11.0582,13.1514,-3.9021,17.620
18.4180,14.4731,14.7235,-4.6803,21.170
18.4280,14.5939,14.8392,-4.9073,21.384
18.4340,18.8306,16.3831,-5.7691,25.618
18.4440,24.1282,17.2421,-6.2366,30.304
18.4510,29.1104,17.7431,-4.4783,34.384
18.4900,23.4332,17.7552,-4.3742,29.724
18.4920,15.0997,17.2020,-4.3910,23.306
18.4950,9.5990,17.2511,-5.2491,20.428
18.4970,9.8831,17.5946,-5.0638,20.806
18.4990,4.8543,15.3114,-5.6795,17.037
18.5080,2.0781,12.6704,-5.8606,14.114
18.5100,4.3763,6.5483,-2.4135,8.238
18.5190,4.9154,2.9939,-2.9136,6.451
18.5480,3.5335,1.3213,-4.0579,5.541
18.5500,6.0179,1.4155,-3.5439,7.126
18.5510,6.0026,1.4091,-3.5089,7.094
18.5520,10.2317,1.0010,-2.1449,10.502
18.5600,11.5937,-0.2075,-1.3422,11.673
18.5680,11.0153,-1.5412,-1.2686,11.195
18.5770,9.9517,-2.5401,-1.9171,10.448
18.6060,9.1801,-3.1933,-2.1077,9.946
18.6070,8.4236,-3.4616,-1.5528,9.239
18.6090,8.2287,-3.7145,-1.5337,9.158
18.6110,7.3739,-3.4659,-1.3274,8.255
18.6190,6.7442,-2.9998,-1.0966,7.462
18.6270,6.2646,-2.2873,-0.9460,6.736
18.6360,6.1099,-1.3649,-0.5053,6.281
18.6440,5.7339,-0.5005,-0.4211,5.771
18.6530,5.3720,-0.8064,-0.3956,5.447
18.6610,4.6972,-0.1586,0.0469,4.700
18.6690,3.5362,0.2888,0.1407,3.551
18.6770,2.1048,0.8304,-0.5812,2.336
18.6860,0.9890,1.6228,-1.5318,2.441
18.6940,-0.0287,2.4113,-1.3850,2.781
18.7040,-0.5927,2.9452,-0.5506,3.054
18.7120,-1.0759,2.7569,-0.4929,3.000
18.7220,-1.3913,3.0855,-0.0700,3.385
18.7490,-2.0649,3.2265,0.0530,3.831
18.7500,-2.9537,3.2790,0.3046,4.424
18.7520,-3.3520,3.4189,0.4680,4.811
18.7530,-3.4049,3.9578,0.4431,5.240
18.7620,-3.5906,4.6413,0.5963,5.898
18.7700,-4.0923,4.6461,0.7101,6.232
18.7780,-4.6099,5.5584,1.0735,7.301
18.7870,-5.6298,6.3962,1.3494,8.627
18.7960,-6.6998,6.9040,1.4577,9.730
18.8040,-7.5632,6.8654,1.6114,10.341
18.8120,-8.6658,6.5920,1.0656,10.940
18.8200,-9.6831,6.2951,0.1180,11.550
18.8290,-10.0853,6.4410,0.1605,11.968
18.8370,-11.7538,6.7039,-0.0255,13.531
18.8570,-14.3011,7.1113,-0.0258,15.972
18.8590,-18.0594,7.1597,-0.5370,19.434
18.8810,-21.6564,7.0683,-0.9683,22.801
18.8830,-24.0823,6.4152,-0.8713,24.937
18.8840,-24.0521,6.4149,-0.8568,24.908
18.8970,-25.1193,5.1481,-0.6440,25.650
18.8990,-23.1755,3.5203,0.1526,23.442
18.9290,-20.4207,2.2020,0.7912,20.554
18.9300,-18.9218,0.8687,0.7649,18.957
18.9320,-18.9690,0.5025,-0.7463,18.990
18.9340,-15.1905,-0.0935,0.7343,15.209
18.9380,-14.9270,-0.1882,0.6497,14.942
18.9460,-12.5279,0.6647,-3.2885,12.969
18.9550,-5.7196,5.9767,-0.4321,8.284
18.9630,10.4515,16.8575,11.6731,23.015
18.9790,14.9849,23.5612,5.8675,28.533
18.9810,-1.6501,19.9523,-0.1731,20.021
19.0050,-9.7235,7.4983,-0.8079,12.305
19.0060,-9.2109,7.4241,-0.8207,11.859
19.0070,-10.6059,-5.8459,1.4919,12.202
19.0130,-10.5073,-16.7793,0.9933,19.823
19.0290,-13.8148,-18.1868,1.2300,22.872
19.0300,-13.9973,-9.8178,0.3404,17.101
19.0620,-12.7267,-2.4789,0.5731,12.978
19.0640,-10.9510,2.0095,-1.4040,11.222
19.0650,-10.7291,2.0295,-1.3770,11.006
19.0670,-10.0803,4.3039,-2.3123,11.202
19.0720,-8.6128,4.2447,-0.6242,9.622
19.0980,-6.6056,2.6571,-0.3723,7.130
19.0990,-5.3669,0.8564,-0.6459,5.473
19.1000,-3.4563,-0.7059,-0.4864,3.561
19.1160,-1.0373,-1.8953,0.2592,2.176
19.1170,-0.9688,-1.8716,0.2958,2.128
19.1220,-0.0667,-1.8887,0.7403,2.030
19.1310,-0.6809,-0.7328,1.0853,1.476
19.1390,-1.5158,0.5173,0.5279,1.686
19.1490,-2.0811,1.4893,-0.1277,2.562
19.1560,-1.9460,1.9102,-0.7243,2.821
19.1790,-1.9139,1.9177,-0.6959,2.797
19.1810,-1.3179,1.7669,-0.9077,2.384
19.1820,-0.3911,1.1263,-1.2212,1.707
19.1900,0.5926,0.2517,-1.0668,1.246
19.1980,1.4962,-0.3080,-0.6408,1.657
19.2080,2.2237,-0.3570,-0.4891,2.305
19.2140,2.7572,-0.1499,-0.1777,2.767
19.2240,2.7831,-0.1379,-0.1589,2.791
19.2310,2.8915,0.1499,-0.0402,2.896
19.2400,2.5742,0.4196,-0.1343,2.612
19.2490,2.2835,0.7886,-0.2865,2.433
19.2570,2.2390,1.0813,-0.8725,2.635
19.2660,2.8901,0.9644,-1.3856,3.347
19.2740,4.1596,0.8115,-1.8856,4.639
19.2830,4.2473,0.8385,-1.8838,4.721
19.3000,5.7014,0.7530,-1.8688,6.047
19.3600,6.1962,0.6560,-1.7604,6.475
19.3610,5.6094,0.6050,-1.0297,5.735
19.3630,4.1910,0.6186,-0.3006,4.247
19.3640,2.5059,0.8527,0.5465,2.703
19.3650,0.7275,1.2858,1.1183,1.853
19.3670,0.8904,1.3491,1.0992,1.955
19.3680,-0.2411,1.8832,1.3091,2.306
19.3700,-0.5117,2.2996,0.7679,2.478
19.3710,-0.0204,2.3641,0.2409,2.376
19.3750,0.9584,2.5477,-0.3699,2.747
19.3880,2.3273,3.2615,-0.8318,4.092
19.3910,3.7350,4.1534,-1.3998,5.759
19.4000,3.8138,4.2271,-1.4642,5.879
19.4080,4.8399,5.4436,-1.4971,7.436
19.4160,5.2836,6.7441,-1.4386,8.687
19.4250,5.4802,7.9543,-1.2679,9.742
19.4390,5.4467,9.0727,-1.1645,10.646
19.4470,5.5740,9.7860,-1.1326,11.319
19.4790,5.7617,9.8984,-1.2532,11.522
19.4810,6.6127,10.3678,-1.3346,12.369
19.4840,8.3001,10.9381,-1.8153,13.850
19.4860,10.2911,11.6674,-2.2615,15.721
19.4880,12.7336,12.9803,-3.1792,18.459
19.4920,16.9707,15.0659,-4.4103,23.118
19.5010,22.2736,16.8256,-5.7846,28.508
19.5090,22.3512,16.9206,-6.0040,28.669
19.5180,27.9802,18.0537,-5.1345,33.693
19.5280,25.2693,18.1421,-3.8846,31.349
19.5340,18.0449,17.2425,-4.3686,25.338
19.5430,11.6722,16.5120,-3.8417,20.583
19.5510,8.1273,15.4443,-3.4348,17.787
19.5600,4.9933,13.1374,-4.2203,14.674
19.5680,5.2011,13.4274,-3.9981,14.944
19.5820,2.2988,9.6787,-3.7507,10.632
19.5840,3.0291,3.9353,-1.5687,5.208
19.6240,1.3050,1.7978,-2.9981,3.731
19.6260,1.1096,1.0827,-3.2286,3.582
19.6270,4.7140,1.5490,-2.4850,5.549
19.6280,10.5988,1.6716,-1.1836,10.795
19.6300,10.5268,1.5701,-1.2108,10.712
19.6350,13.3883,0.9800,-1.2562,13.483
19.6440,12.7742,-0.0818,-1.4735,12.859
19.6510,10.9549,-0.9187,-1.9782,11.170
19.6600,9.5122,-1.4214,-2.3757,9.907
19.6790,8.3615,-1.6166,-2.0509,8.760
19.6800,8.1802,-1.8436,-2.0120,8.623
19.7180,6.9372,-1.7168,-1.7430,7.356
19.7200,5.7501,-1.3711,-1.7830,6.174
19.7220,4.7963,-0.9777,-1.5274,5.128
19.7230,4.0542,-0.7109,-0.8823,4.210
19.7240,3.4414,-0.6088,-0.3736,3.515
19.7260,2.9621,-0.5637,-0.5960,3.074
19.7360,2.6177,-0.8450,-0.6430,2.825
19.7430,2.0553,-0.9213,-1.0178,2.472
19.7520,1.5290,-0.8890,-1.3651,2.234
19.7600,0.9792,-0.7272,-1.3700,1.834
19.7690,0.7179,-0.4146,-1.2065,1.464
19.7770,0.7035,-0.0475,-0.7533,1.032
19.7860,0.6880,0.1844,-0.3198,0.781
19.7960,0.1869,0.0107,-0.2785,0.336
19.8020,0.1245,0.1782,0.1148,0.246
19.8130,0.0518,0.4136,0.1726,0.451
19.8190,-0.3384,0.7184,0.1857,0.816
19.8390,-0.9127,1.4251,0.0750,1.694
19.8410,-1.8443,2.3965,-0.2439,3.034
19.8830,-3.3463,3.7303,-0.6970,5.060
19.8860,-3.8877,3.7624,-0.5816,5.441
19.8880,-6.0124,5.5876,-1.0569,8.276
19.8920,-8.3565,7.7906,-1.4414,11.515
19.8940,-10.0170,8.7641,-1.9264,13.448
19.8960,-11.5348,8.2531,-2.3304,14.373
19.8970,-13.0194,7.1166,-2.9474,15.127
19.9130,-14.2801,7.1662,-2.6032,16.188
19.9150,-14.6339,7.3365,-2.4993,16.560
19.9550,-16.2336,8.8020,-1.4531,18.523
19.9570,-18.0308,10.2141,-1.3544,20.767
19.9590,-20.6509,10.4602,-1.1546,23.178
19.9610,-23.6358,8.9071,-0.8867,25.274
19.9630,-27.5422,5.3979,0.0549,28.066
19.9640,-27.3007,5.2957,0.0612,27.810
19.9730,-29.4702,1.3737,0.8929,29.516
19.9780,-24.7977,1.8876,-0.2843,24.871
20.0030,-16.4129,3.8931,4.4970,17.457
20.0050,-10.7770,5.4050,5.2655,13.156
20.0060,-4.7030,9.2090,8.0271,13.090
20.0110,6.0246,16.0914,8.1369,19.012
20.0300,6.1964,15.9848,7.9814,18.911
20.0370,12.8451,23.0792,6.9499,27.312
20.0380,0.3405,17.9493,0.3617,17.956
20.0590,-10.1079,6.1890,-0.0408,11.852
20.0600,-13.0947,-6.5441,1.4572,14.711
20.0620,-11.6570,-16.3060,0.3238,20.047
20.0780,-13.4021,-17.1661,-0.3076,21.780
20.0810,-13.1343,-17.1160,-0.2461,21.576
20.0990,-13.6465,-8.6452,-0.3582,16.158
20.1020,-13.4916,-1.9502,-0.0057,13.632
20.1040,-12.0524,1.8941,-1.9400,12.354
20.1120,-11.7292,4.5205,-2.5581,12.828
20.1200,-11.3235,5.6388,1.5006,12.739
20.1400,-9.2455,4.2485,1.7768,10.329
20.1590,-9.0895,4.2681,1.7900,10.200
20.1650,-5.9822,1.7819,-0.0439,6.242
20.1660,-2.8001,-0.4647,0.0142,2.838
20.1670,-0.6682,-1.9442,0.0484,2.056
20.1780,0.3116,-2.0922,0.4319,2.159
20.2040,-0.0350,-0.9704,0.3432,1.030
20.2050,-1.2284,0.3037,-0.4745,1.351
20.2050,-1.0358,0.3207,-0.4527,1.175
20.2080,-1.8276,1.4119,-0.8672,2.467
20.2130,-2.0560,1.9699,-0.9937,3.016
20.2210,-1.7412,1.9765,-0.9875,2.813
20.2360,-0.9795,1.5514,-0.8470,2.021
20.2390,0.0336,0.9114,-0.6689,1.131
20.2490,0.0662,0.9192,-0.6656,1.137
20.2550,1.1750,0.2230,-0.6591,1.366
20.2630,2.1442,-0.1384,-0.4929,2.204
20.2730,2.7207,-0.2043,-0.2839,2.743
20.2800,2.6723,-0.1311,-0.1098,2.678
20.2890,2.1182,0.0610,-0.3054,2.141
20.2970,1.3133,0.3518,-0.2058,1.375
20.3050,1.3542,0.3690,-0.1849,1.416
20.3130,0.8113,0.8566,-0.2261,1.201
20.3220,0.7248,1.2267,-0.1545,1.433
20.3300,1.4662,1.3821,-0.2628,2.032
20.3390,3.0779,1.3248,-0.6706,3.417
20.3470,5.1497,1.0948,-1.1053,5.380
20.3560,6.8438,0.7538,-1.6038,7.070
20.3640,6.9554,0.7958,-1.6145,7.185
20.3760,7.5535,0.3761,-1.6661,7.744
20.3900,6.4985,0.1409,-1.3440,6.637
20.3900,4.2407,0.5007,-0.8626,4.356
20.4040,1.8913,0.9421,-0.0300,2.113
20.4060,-0.0015,1.4054,0.2475,1.427
20.4150,-0.9912,1.9472,0.4958,2.241
20.4230,-0.8280,2.0177,0.4587,2.229
20.4330,-0.5518,2.4978,0.2915,2.575
20.4390,0.7987,3.0360,-0.1038,3.141
20.4480,2.5013,3.8109,-0.5890,4.596
20.4570,3.9891,4.8241,-0.9443,6.331
20.4650,5.0486,5.8817,-1.0873,7.827
20.4730,5.2111,5.9667,-1.1739,8.008
20.4820,5.9073,7.1565,-1.2036,9.357
20.4890,6.3367,8.1208,-0.8451,10.335
20.4990,6.2420,8.3879,-0.6724,10.477
20.5070,6.5025,8.6430,-0.9050,10.854
20.5280,7.3085,9.1179,-1.6990,11.808
20.5360,8.3246,10.2031,-2.7432,13.451
20.5410,8.4871,10.3261,-2.9037,13.678
20.5430,11.0284,12.1716,-3.2108,16.736
20.5510,14.1643,14.0758,-3.7744,20.322
20.5600,17.4233,16.0787,-4.6013,24.151
20.5660,21.4094,17.6493,-4.7044,28.142
20.5750,25.2284,18.7363,-4.1838,31.702
20.5820,22.0712,18.6550,-4.1784,29.199
20.5920,22.2366,18.8649,-4.2251,29.465
20.5990,17.1719,17.8127,-4.6155,25.169
20.6080,14.5208,17.4781,-3.5922,23.005
20.6160,10.3186,15.8785,-4.0176,19.358
20.6240,6.1695,13.4281,-5.1708,15.656
20.6330,4.1233,9.5811,-5.2345,11.670
20.6410,4.2047,4.6462,-2.9197,6.913
20.6490,4.2878,4.8191,-2.7388,7.008
20.6660,0.0617,2.3392,-3.8371,4.494
20.6670,-0.2316,1.8251,-4.0402,4.439
20.6930,4.0453,1.9213,-3.0565,5.422
20.6930,9.3900,1.5175,-1.8747,9.695
20.6940,11.7239,0.5192,-0.8102,11.763
20.7000,11.6283,-0.5794,-0.6646,11.662
20.7090,11.4985,-0.7682,-0.7497,11.549
20.7160,10.7375,-1.5103,-1.4152,10.935
20.7250,9.9745,-1.7029,-1.9283,10.301
20.7330,8.9534,-1.6401,-1.5392,9.232
20.7410,7.8303,-1.1625,-1.4503,8.048
20.7500,6.8195,-0.5035,-1.3595,6.972
20.7580,6.5410,-0.8008,-1.3294,6.723
20.7670,5.4724,-0.1228,-0.9900,5.563
20.7750,4.4602,0.4196,-0.3411,4.493
20.7870,3.4451,0.8097,-0.1434,3.542
20.7920,2.1180,0.8968,-0.2801,2.317
20.8160,0.8697,0.9363,-0.7746,1.494
20.8160,-0.2790,1.0486,-1.1524,1.583
20.8170,-0.7046,0.8032,-1.1382,1.561
20.8250,-1.2322,0.8873,-1.0822,1.865
20.8340,-1.1359,1.0886,-0.8024,1.766
20.8420,-0.9818,1.1756,-0.5291,1.621
20.8510,-0.7408,1.1147,-0.2366,1.359
20.8590,-0.9030,1.2001,-0.0645,1.503
20.8680,-1.6939,1.5315,0.0033,2.284
20.8790,-2.2121,1.4620,0.1022,2.654
20.8850,-3.2657,2.1860,-0.0629,3.930
20.8940,-4.3048,3.1746,-0.0802,5.349
20.9010,-5.0112,4.2125,-0.0332,6.547
20.9100,-5.5415,5.6522,0.1353,7.917
20.9170,-6.3015,7.1012,0.5800,9.512
20.9260,-7.4781,7.9305,1.0209,10.948
20.9340,-7.9707,8.0596,1.1398,11.392
20.9510,-9.7525,7.8575,1.2266,12.584
20.9530,-11.4415,7.0834,0.7130,13.476
20.9990,-13.5370,7.3741,1.1071,15.455
21.0010,-15.5958,9.1151,1.8889,18.163
21.0100,-18.1263,10.7069,1.2921,21.092
21.0130,-20.9938,10.7064,0.3661,23.569
21.0150,-21.0457,10.7347,0.3639,23.628
21.0200,-23.6338,8.5386,-0.3829,25.132
21.0210,-26.0131,5.0919,0.3162,26.509
21.0210,-28.2410,1.2242,0.8524,28.280
21.0290,-25.0874,0.2122,0.6609,25.097
21.0360,-22.7562,0.5897,-0.3102,22.766
21.0440,-22.4693,0.4799,-0.3790,22.478
21.0530,-16.8756,0.8294,0.5925,16.906
21.0600,-12.7617,2.1470,-2.9357,13.270
21.0780,-5.8085,7.3759,1.4458,9.499
21.0860,8.8986,17.5245,8.5784,21.445
21.0880,12.8594,23.9253,5.3875,27.691
21.1090,-0.6656,19.8263,1.1118,19.869
21.1110,-0.1731,19.6890,1.0327,19.717
21.1110,-7.4370,7.4752,1.2480,10.618
21.1260,-7.8088,-5.5630,3.4140,10.177
21.1270,-8.7350,-15.6379,1.9483,18.018
21.1480,-12.4202,-17.3033,1.4204,21.347
21.1490,-13.7812,-9.4273,1.0240,16.729
21.1620,-14.3821,-2.2293,-0.9160,14.583
21.1630,-14.1205,-2.2045,-0.8823,14.319
21.1690,-15.7678,3.1501,-3.1150,16.378
21.1780,-13.7969,6.5361,-1.9007,15.385
21.1940,-9.3137,5.9578,0.2864,11.060
21.1950,-6.1033,3.5023,0.6303,7.065
21.2050,-4.3453,0.8790,0.2352,4.440
21.2170,-2.4409,-1.3647,1.2584,3.067
21.2220,-2.3413,-1.3353,1.3026,2.994
21.2430,-0.0690,-2.4832,1.4630,2.883
21.2440,1.6173,-2.1229,0.1390,2.672
21.2450,1.8626,-0.6683,-0.4372,2.027
21.2530,0.9721,0.7636,-0.7415,1.441
21.2630,-0.2868,1.7030,-1.6570,2.393
21.2700,-0.2319,2.0329,-2.2248,3.023
21.2790,-1.0027,1.9491,-2.1912,3.099
21.2870,-1.1102,1.5893,-2.3222,3.025
21.2950,-0.9852,0.9541,-2.0883,2.498
21.3040,-0.6304,0.1613,-1.6854,1.807
21.3130,0.3068,-0.4164,-1.2284,1.333
21.3210,1.4556,-0.4258,-0.7340,1.685
21.3300,1.4858,-0.4156,-0.7300,1.707
21.3540,2.5957,-0.1886,-0.4493,2.641
21.3550,3.1629,-0.0372,-0.3419,3.182
21.3560,3.1273,0.1358,-0.1535,3.134
21.3620,2.3120,0.2519,0.0583,2.326
21.3710,1.4825,0.3697,0.1544,1.536
21.3790,1.1281,0.5278,0.0345,1.246
21.3880,1.1907,0.5501,0.0499,1.313
21.3960,1.3962,0.7110,-0.1731,1.576
21.4050,2.0405,0.8540,-0.3033,2.233
21.4130,3.0648,0.8231,-0.5954,3.229
21.4210,4.2948,0.6003,-0.7159,4.395
21.4290,5.1443,0.1675,-0.8018,5.209
21.4380,5.1835,-0.1212,-0.8307,5.251
21.4460,5.3150,-0.0689,-0.8386,5.381
21.4550,4.5914,0.1646,-0.6307,4.637
21.4640,3.2066,0.6563,-0.4222,3.300
21.4730,1.5723,1.3468,-0.2525,2.086
21.4810,0.1780,1.9016,-0.2831,1.931
21.5050,-0.7027,2.4764,-0.1287,2.577
21.5060,-0.4663,3.0503,-0.1424,3.089
21.5070,-0.3094,3.1142,-0.1883,3.135
21.5160,0.8848,3.8049,-0.4431,3.931
21.5220,2.3342,4.7324,-0.5309,5.303
21.5300,3.6885,5.6831,-0.6076,6.802
21.5390,4.5774,6.5802,-0.3409,8.023
21.5480,4.9823,7.4256,-0.3927,8.951
21.5560,5.1590,7.5159,-0.4882,9.129
21.5650,5.1039,8.0443,0.1927,9.529
21.5720,4.9949,8.5995,0.3706,9.952
21.5810,5.0224,8.9428,0.0218,10.257
21.5890,6.0439,9.8355,-0.3093,11.548
21.5980,8.6017,11.5479,-0.7231,14.418
21.6050,11.6386,13.5340,-1.6904,17.930
21.6150,11.7811,13.6365,-1.9126,18.122
21.6250,15.6885,16.1262,-2.9736,22.694
21.6440,20.4996,18.3023,-4.8367,27.903
21.6450,25.6709,19.3293,-6.3925,32.764
21.6480,29.9446,19.0858,-4.9253,35.850
21.6600,25.1710,18.6003,-5.4006,31.760
21.6650,16.8926,16.8451,-6.1116,24.627
21.6740,17.1360,17.1412,-5.9957,24.968
21.6810,11.7760,16.0096,-4.9501,20.481
21.6900,7.5669,14.2039,-3.8442,16.546
21.6980,3.1326,11.3648,-3.8829,12.412
21.7070,-0.7016,6.7081,-5.4392,8.665
21.7160,0.1174,2.3443,-3.7313,4.408
21.7240,-2.5513,0.0138,-5.4126,5.984
21.7320,-2.4890,0.1394,-5.3352,5.889
21.7410,-0.5822,-0.0039,-5.3549,5.386
21.7490,6.2483,0.1959,-3.3797,7.107
21.7600,12.2280,0.1322,-2.4405,12.470
21.7660,13.2987,-0.7445,-1.5250,13.407
21.7940,11.6369,-1.8325,-1.9585,11.942
21.7950,9.8062,-2.4776,-2.5880,10.440
21.7970,9.6611,-2.6720,-2.6744,10.374
21.8000,9.0178,-3.1314,-2.4105,9.846
21.8080,8.9140,-3.1854,-1.3191,9.558
21.8190,8.4520,-2.8638,-0.7071,8.952
21.8240,7.7659,-2.3625,-0.5954,8.139
21.8330,6.9588,-1.8285,-0.4584,7.210
21.8410,6.6572,-2.1191,-0.4575,7.001
21.8490,5.6272,-1.5658,-0.3573,5.852
21.8590,4.6539,-1.3609,-0.0155,4.849
21.8720,4.2626,-1.0728,0.2237,4.401
21.8750,4.0838,-0.4415,-0.0077,4.108
21.8860,3.7928,0.5202,-0.4748,3.858
21.9120,3.1331,1.6350,-0.9275,3.654
21.9130,2.6977,1.4186,-0.8467,3.163
21.9140,1.6644,2.3596,-0.9613,3.043
21.9170,0.6796,3.0659,-0.7250,3.223
21.9250,-0.4131,3.4604,-0.8801,3.594
21.9340,-1.7683,3.6426,-1.2693,4.243
21.9420,-3.2479,3.6330,-1.5231,5.106
21.9500,-4.4163,3.5501,-1.7625,5.934
21.9610,-4.9071,3.4916,-1.6952,6.257
21.9670,-5.4230,3.4580,-1.7933,6.677
21.9760,-5.9622,3.7436,-1.9388,7.302
21.9840,-6.6794,4.3873,-1.9932,8.236
21.9930,-7.8383,4.9963,-1.8965,9.487
22.0000,-9.1302,5.6297,-2.3120,10.973
22.0300,-10.1736,5.5618,-2.8628,11.943
22.0310,-10.6379,5.6748,-2.8176,12.382
22.0390,-11.6700,5.3391,-3.2321,13.234
22.0410,-12.2494,5.2900,-3.8088,13.876
22.0450,-12.9991,6.3432,-3.6622,14.921
22.0630,-15.3062,7.7370,-2.7594,17.371
22.0650,-18.1798,8.8903,-1.9906,20.335
22.0880,-18.3075,8.9732,-1.2562,20.427
22.0890,-20.9914,8.7693,-1.1753,22.780
22.0900,-23.0031,7.3854,-0.5542,24.166
22.0930,-23.5730,5.1225,-0.2044,24.124
22.1020,-20.4644,3.7528,1.5619,20.864
22.1100,-18.6923,2.4058,1.7918,18.931
22.1380,-19.6548,1.1409,1.4296,19.740
22.1400,-19.3568,1.0297,1.3658,19.432
22.1430,-15.6253,1.1272,1.6694,15.755
22.1440,-12.8282,1.3722,0.2103,12.903
22.1520,-5.2362,4.4098,4.9313,8.437
22.1600,4.6808,10.7897,5.8959,13.156
22.1760,11.6036,20.0444,7.4186,24.320
22.1780,2.5062,22.1312,1.7497,22.341
22.1850,2.9116,22.0023,1.6845,22.258
22.2000,-8.5201,12.8304,1.2727,15.454
22.2020,-12.4953,1.9281,1.6944,12.756
22.2100,-11.5866,-7.0306,0.7171,13.572
22.2360,-10.8856,-11.3588,-0.7224,15.749
22.2390,-12.0233,-8.6635,-1.0993,14.860
22.2400,-11.1845,-3.6389,-1.0180,11.806
22.2450,-10.9475,-3.6141,-0.9775,11.570
22.2520,-9.0753,-0.1628,-1.4170,9.187
22.2660,-8.0061,1.9532,-1.0113,8.303
22.2690,-5.9001,2.5974,-0.1595,6.448
22.3020,-3.9969,2.1239,-0.1333,4.528
22.3030,-3.5205,1.4372,0.4283,3.827
22.3040,-2.5002,0.6559,0.3472,2.608
22.3050,-2.3964,0.6777,0.3838,2.520
22.3150,-0.9175,-0.4565,0.4602,1.123
22.3200,-0.5636,-1.0601,0.9284,1.518
22.3280,-1.1945,-0.6451,1.0617,1.723
22.3360,-1.7348,0.1198,0.5273,1.817
22.3450,-2.1470,0.8422,0.2273,2.317
22.3530,-2.0948,0.8573,0.2596,2.278
22.3620,-2.3214,1.1651,-0.3159,2.617
22.3700,-1.9055,1.2755,-0.5205,2.351
22.3780,-1.1406,1.1305,-0.7467,1.771
22.3860,0.1104,0.8477,-0.8591,1.212
22.3950,1.3793,0.6826,-1.0335,1.854
22.4210,2.3551,0.4403,-1.0130,2.601
22.4220,2.3927,0.4538,-0.9933,2.630
22.4220,2.8844,0.0968,-0.8948,3.022
22.4280,2.9094,-0.1792,-0.8719,3.043
22.4370,2.5644,-0.2969,-0.8479,2.717
22.4450,1.9681,-0.2567,-0.7652,2.127
22.4550,1.6507,-0.0195,-0.8004,1.835
22.4620,1.7894,0.2772,-1.0927,2.115
22.4710,1.8589,0.3013,-1.0764,2.169
22.4790,2.6620,0.5820,-1.2032,2.979
22.4870,3.9266,0.7088,-1.1991,4.166
22.4950,5.1836,0.6833,-1.0634,5.335
22.5040,6.0429,0.3898,-0.8142,6.110
22.5120,5.8430,-0.1099,-0.4094,5.858
22.5210,4.5970,-0.2301,-0.2394,4.609
22.5300,4.7488,-0.1679,-0.2426,4.758
22.5500,3.2589,0.4079,0.0501,3.285
22.5510,1.7736,1.2987,0.0446,2.199
22.5540,0.6671,2.1127,0.2070,2.225
22.5650,0.0532,2.7120,0.2238,2.722
22.5710,0.3230,3.1169,0.2118,3.141
22.5810,1.0023,3.6399,-0.2982,3.787
22.5880,1.1709,3.7139,-0.3447,3.909
22.5960,2.1644,4.3008,-0.8305,4.886
22.6040,3.0800,4.8903,-1.1100,5.885
22.6130,4.0362,5.6011,-1.3788,7.040
22.6220,4.6615,6.3164,-1.3424,7.964
22.6300,5.1520,7.1156,-1.0580,8.848
22.6380,5.3332,7.2175,-1.1512,9.048
22.6470,5.9672,8.0120,-0.7041,10.015
22.6590,6.7973,8.8708,-0.3074,11.180
22.6640,7.3725,9.7937,-0.5903,12.273
22.6730,8.6705,10.9757,-0.8296,14.012
22.6890,10.6880,12.5514,-1.3885,16.544
22.6900,12.6008,13.4441,-1.7823,18.512
22.6970,12.7571,13.5715,-2.0107,18.734
22.7240,15.9095,14.3789,-2.1271,21.550
22.7250,19.5473,15.3973,-3.0065,25.064
22.7260,23.1722,17.1257,-2.7120,28.941
22.7310,21.8314,19.1682,-3.1853,29.226
22.7400,16.1812,19.9418,-4.2048,26.023
22.7470,11.3584,20.1817,-5.1542,23.725
22.7560,11.6016,20.4921,-5.0287,24.079
22.7640,7.7757,17.4037,-5.9802,19.978
22.7730,5.5474,13.0910,-5.5992,15.281
22.7810,5.5262,9.4827,-5.1531,12.125
22.7890,7.8429,5.2859,-2.6777,9.830
22.7980,3.8855,2.6273,-3.3118,5.742
22.8060,0.5046,0.8606,-4.2446,4.360
22.8150,0.5490,0.9612,-4.1926,4.336
22.8360,2.2899,0.6051,-3.8800,4.546
22.8360,7.1750,0.4656,-2.7389,7.694
22.8400,10.5588,-0.0736,-2.0855,10.763
22.8720,11.4505,-1.1894,-1.6656,11.632
22.8740,11.2494,-2.1994,-1.6637,11.582
22.8750,11.1035,-2.6455,-1.4107,11.501
22.8760,10.9520,-2.8811,-1.4363,11.415
22.8820,10.5972,-2.7683,-0.7524,10.979
22.8910,9.6657,-2.3827,-0.6729,9.978
22.8990,8.3799,-1.6733,-0.8594,8.588
22.9070,7.4407,-0.8387,-0.6568,7.517
22.9150,7.1197,0.1434,-0.0496,7.121
22.9240,6.7904,-0.1700,-0.0352,6.793
22.9330,6.4153,0.6763,0.6878,6.487
22.9410,5.6316,1.1443,0.6166,5.780
22.9490,3.8955,1.3359,-0.7937,4.194
22.9570,1.4630,1.7208,-1.8652,2.929
22.9700,-0.7691,2.1582,-1.6931,2.849
22.9750,-2.0262,2.5074,-1.4432,3.532
23.0040,-2.4850,2.2837,-1.4422,3.670
23.0050,-3.1236,2.3926,-1.3475,4.159
23.0060,-3.3062,2.0764,-1.4219,4.155
23.0080,-3.3640,1.6119,-1.4631,4.007
23.0160,-3.0966,1.2754,-1.4507,3.650
23.0250,-2.6993,1.3609,-1.3419,3.307
23.0330,-2.9149,1.7306,-1.2216,3.603
23.0410,-3.4400,1.6993,-1.1531,4.006
23.0490,-4.2591,2.4023,-1.2353,5.044
23.0590,-5.4442,3.3877,-1.4496,6.574
23.0670,-6.7245,4.4397,-1.4418,8.186
23.0750,-8.0906,5.3021,-1.1194,9.738
23.0830,-9.4467,5.7593,-1.2877,11.139
23.0920,-10.8225,5.9263,-2.1031,12.517
23.1000,-11.2718,6.0743,-2.0138,12.962
23.1170,-12.3349,6.0412,-1.9608,13.874
23.1190,-13.5784,7.0467,-1.4008,15.362
23.1440,-15.9504,8.2934,-1.4328,18.035
23.1450,-19.1968,8.9433,-0.9751,21.200
23.1460,-22.0417,8.3218,-0.6235,23.569
23.1520,-22.0852,8.3669,-0.5561,23.624
23.1590,-23.7124,6.5945,-1.0116,24.633
23.1670,-23.6979,4.1756,-0.5127,24.068
23.1760,-20.9683,2.7104,1.3142,21.184
23.1850,-18.7294,1.5796,2.0426,18.907
23.1920,-18.2835,1.6711,-0.2269,18.361
23.2010,-13.2656,2.6214,1.9113,13.657
23.2090,-13.0265,2.5209,1.8327,13.394
23.2180,-9.2816,4.0680,-1.3726,10.226
23.2260,-2.2273,9.0835,3.5537,10.005
23.2390,14.0670,19.7597,11.2650,26.744
23.2460,11.2993,25.0068,5.4381,27.975
23.2690,-6.5431,17.8421,1.5209,19.065
23.2700,-14.3558,5.3537,1.1472,15.364
23.2710,-13.8456,5.2842,1.1261,14.862
23.2770,-12.6905,-6.6692,1.0926,14.378
23.2990,-9.5423,-15.7194,-1.0750,18.420
23.3070,-10.5559,-17.7731,-1.1672,20.704
23.3100,-10.6762,-10.0318,-0.2979,14.653
23.3110,-10.6651,-3.0293,0.9472,11.127
23.3180,-10.5422,1.5721,-1.3811,10.748
23.3280,-10.3290,1.5872,-1.3709,10.540
23.3350,-9.5621,4.4238,-2.6130,10.855
23.3490,-8.6593,5.4154,0.8079,10.245
23.3570,-7.6714,4.3486,1.7820,8.996
23.3770,-5.9722,2.3443,0.3047,6.423
23.3780,-2.6129,-0.0667,0.8793,2.758
23.3780,0.0019,-2.1403,1.1067,2.409
23.3860,0.0796,-2.1162,1.1354,2.403
23.3940,0.6985,-2.5035,0.7542,2.706
23.4020,0.3482,-1.2274,0.6292,1.423
23.4130,-0.6139,0.2404,-0.4189,0.781
23.4190,-1.4782,1.3323,-0.9813,2.219
23.4420,-1.6795,1.7550,-1.2147,2.716
23.4430,-1.6315,1.7642,-1.1973,2.685
23.4450,-1.2352,1.4589,-1.2810,2.301
23.4530,-0.5290,0.9183,-1.2511,1.640
23.4610,0.4302,0.2611,-1.1454,1.251
23.4690,1.6822,-0.1791,-1.0010,1.966
23.4780,2.7572,-0.3044,-0.8568,2.903
23.4870,3.1288,-0.2130,-0.7117,3.216
23.5040,3.1719,-0.1979,-0.7011,3.254
23.5070,2.7299,0.0143,-0.4947,2.774
23.5170,1.9200,0.2467,-0.1324,1.940
23.5190,1.1334,0.5383,0.1308,1.262
23.5270,0.8991,0.8690,-0.0788,1.253
23.5360,1.4543,1.1026,-0.3320,1.855
23.5440,2.4647,1.2391,-0.6879,2.843
23.5560,2.5442,1.2611,-0.6953,2.923
23.5610,3.9274,1.1107,-0.8833,4.176
23.5720,5.4001,0.7900,-0.9161,5.534
23.6080,5.9492,0.5368,-0.7722,6.023
23.6090,5.6680,0.6622,-0.2385,5.712
23.6100,4.8659,1.0859,0.0782,4.986
23.6110,3.7411,1.5537,0.4526,4.076
23.6120,3.8976,1.6153,0.4335,4.241
23.6210,2.8280,2.0159,0.3936,3.495
23.6280,1.6837,2.1063,0.0572,2.697
23.6370,0.5826,2.0438,-0.4411,2.171
23.6460,0.0318,2.2192,-0.9844,2.428
23.6530,0.1647,2.8459,-1.2230,3.102
23.6630,1.0576,3.7651,-1.2986,4.121
23.6700,1.2227,3.8424,-1.3656,4.257
23.6980,2.5241,4.8240,-1.5787,5.669
23.6990,3.8263,5.9072,-1.5264,7.202
23.7000,4.9725,7.0927,-1.4806,8.788
23.7130,5.9679,8.1883,-1.6382,10.264
23.7140,6.6530,9.1539,-2.2145,11.531
23.7210,6.8322,9.2660,-2.3277,11.745
23.7300,7.1700,10.2090,-2.8426,12.795
23.7380,7.8584,11.3132,-3.3554,14.178
23.7470,9.0906,12.5382,-3.4502,15.867
23.7550,11.6635,14.1753,-3.6595,18.718
23.7630,15.1559,15.6322,-3.1770,22.004
23.7710,19.6981,16.9849,-3.9192,26.303
23.7800,19.7889,17.0993,-4.1972,26.488
23.8030,24.7086,17.4936,-4.5795,30.619
23.8100,25.7965,17.3207,-3.3435,31.251
23.8110,20.2334,17.0388,-3.7940,26.723
23.8160,13.1632,16.7533,-4.4029,21.756
23.8370,9.3478,16.4727,-5.5834,19.746
23.8380,6.7521,14.2062,-5.7572,16.750
23.8400,6.9726,14.4990,-5.5198,17.009
23.8470,4.4501,11.2967,-5.5652,13.356
23.8560,3.8264,6.0988,-3.7114,8.100
23.8640,2.9082,3.3059,-3.8044,5.819
23.8730,0.7208,1.9113,-4.1929,4.664
23.8810,2.3805,1.7358,-3.2552,4.390
23.8890,7.4569,1.4294,-1.7225,7.786
23.8970,7.3919,1.3294,-1.7243,7.706
23.9060,11.3164,0.1689,-1.2302,11.384
23.9150,11.6342,-1.4257,-0.6581,11.740
23.9230,10.2178,-2.8899,-0.5858,10.635
23.9310,8.7079,-3.7240,-1.0114,9.525
23.9430,7.3759,-3.9894,-1.5458,8.527
23.9890,7.1981,-4.2153,-1.5154,8.478
23.9900,6.0567,-4.1260,-1.8302,7.554
23.9910,5.2448,-3.6215,-1.9195,6.656
23.9920,4.8698,-2.9260,-1.7628,5.948
23.9950,4.7615,-2.4169,-1.1821,5.469
23.9960,4.8187,-2.0521,-0.3248,5.248
23.9980,5.0831,-1.6472,0.1350,5.345
24.0060,4.7147,-1.9403,0.0975,5.099
24.0150,4.9147,-1.5527,0.5149,5.180
24.0330,4.5907,-1.0102,-0.1994,4.705
24.0340,3.0812,-0.4356,-1.1074,3.303
24.0400,1.4307,0.3110,-1.0456,1.799
24.0490,-0.3161,0.8883,-0.7780,1.222
24.0570,-1.4771,1.5198,-0.4269,2.162
24.0650,-1.9534,1.3476,-0.3766,2.403
24.0740,-2.3289,1.6888,0.0019,2.877
24.0850,-1.9928,1.5275,0.4166,2.545
24.0990,-1.3697,1.3568,0.6908,2.048
24.0990,-0.9659,1.5101,0.7626,1.948
24.1300,-1.3485,2.2608,0.5303,2.685
24.1310,-2.4579,3.6463,0.0845,4.398
24.1330,-2.9872,3.6692,0.2042,4.736
24.1340,-4.4148,5.3269,0.1599,6.920
24.1410,-5.8745,7.1470,-0.0303,9.252
24.1490,-7.5325,8.5782,-0.3486,11.421
24.1580,-8.9387,8.6611,-0.5959,12.461
24.1660,-10.6358,8.3153,-2.2372,13.685
24.1790,-12.5332,8.7883,-3.4653,15.695
24.2150,-12.8975,8.9465,-3.3767,16.056
24.2180,-16.0555,9.8571,-2.4483,18.998
24.2190,-19.3422,10.5817,-1.7811,22.119
24.2200,-22.0500,10.0537,-1.9445,24.312
24.2220,-24.4142,8.2609,-2.2076,25.868
24.2260,-28.2015,5.2631,-1.2639,28.716
24.2420,-27.9842,5.1816,-1.2279,28.486
24.2440,-24.3338,3.4420,1.0735,24.599
24.2730,-20.6862,2.2831,2.6230,20.976
24.2740,-19.6157,1.2526,3.5804,19.979
24.2750,-15.2727,2.6143,3.5363,15.893
24.2770,-9.8071,3.0060,3.7047,10.906
24.2910,-4.9888,6.1064,3.5108,8.631
24.2930,-4.7823,6.0226,3.4143,8.414
24.3280,4.6468,12.4380,6.5708,14.815
24.3310,18.9756,21.3692,11.5713,30.832
24.3320,5.7636,21.1116,2.9224,22.079
24.3340,-6.3976,10.5890,-0.1026,12.372
24.3460,-11.6096,-1.3096,-1.7153,11.808
24.3470,-11.9960,-11.1358,-1.1720,16.410
24.3590,-11.7248,-11.1163,-1.1287,16.196
24.3610,-11.6277,-15.4330,-0.0144,19.323
24.4090,-11.9379,-9.8715,-0.1013,15.491
24.4110,-12.9015,-3.2807,-0.0297,13.312
24.4130,-11.8541,0.9890,-0.7620,11.920
24.4140,-10.1579,3.5097,-2.7472,11.093
24.4160,-8.3202,4.4038,-1.0696,9.474
24.4180,-8.1683,4.4172,-1.0302,9.343
24.4200,-6.3850,3.6661,1.8375,7.588
24.4410,-5.4151,2.2117,1.6014,6.065
24.4430,-3.6967,0.5854,1.4934,4.030
24.4440,-0.9970,-0.8808,1.9220,2.338
24.5040,0.6103,-1.4440,1.3346,2.059
24.5060,0.6993,-0.8711,0.7508,1.346
24.5070,0.7616,-0.8480,0.7945,1.389
24.5080,-0.0045,0.2112,-0.0253,0.213
24.5090,-0.8116,1.1103,-1.0254,1.715
24.5110,-1.3855,1.5950,-1.5209,2.603
24.5120,-1.3549,1.5290,-1.7476,2.688
24.5130,-1.0338,1.0308,-1.9022,2.398
24.5200,-0.9910,1.0403,-1.8878,2.372
24.5280,-0.3829,0.3634,-1.7023,1.782
24.5500,0.5344,-0.2153,-1.1284,1.267
24.5520,1.3315,-0.4799,-0.7912,1.621
24.5530,1.7943,-0.5670,-0.7653,2.031
24.5960,1.9827,-0.5744,-0.8328,2.226
24.5970,1.8202,-0.3851,-0.7809,2.018
24.6030,1.8572,-0.3711,-0.7679,2.044
24.6060,1.5065,-0.1211,-0.5987,1.626
24.6080,1.2000,0.1294,-0.5489,1.326
24.6120,1.3895,0.3808,-0.4823,1.519
24.6160,2.1712,0.5546,-0.4779,2.291
24.6220,3.6064,0.7696,-0.6920,3.752
24.6280,5.0511,0.7137,-0.7529,5.157
24.6360,5.1378,0.7411,-0.7575,5.246
24.6440,6.2048,0.4238,-0.6462,6.253
24.6640,6.2076,0.0743,-0.3998,6.221
24.6650,5.2207,0.0245,-0.0348,5.221
24.6690,3.5962,0.3910,0.2926,3.629
24.6780,2.0373,0.8979,0.3452,2.253
24.7090,0.6400,1.4072,0.1432,1.553
24.7110,0.7919,1.4676,0.1338,1.673
24.7120,-0.0950,1.9201,-0.0984,1.925
24.7130,-0.5906,2.2742,-0.3971,2.383
24.7200,-0.3438,2.6078,-0.7629,2.739
24.7280,0.7821,3.1562,-1.0411,3.414
24.7370,2.4171,4.0967,-1.2721,4.924
24.7450,2.5661,4.1586,-1.3363,5.066
24.7530,4.2861,5.4199,-1.3289,7.036
24.7620,5.5029,6.7853,-1.4820,8.861
24.7700,5.9091,7.9456,-1.7167,10.050
24.7910,5.7753,8.7812,-1.6817,10.644
24.7930,5.4118,9.5066,-1.6512,11.063
24.7950,5.5425,10.2195,-1.5911,11.734
24.8060,5.7324,10.3301,-1.7033,11.936
24.8300,6.4530,11.4073,-1.6603,13.211
24.8310,8.4249,12.7042,-1.6051,15.328
24.8320,10.6237,13.8655,-1.4871,17.531
24.8390,14.2546,15.6899,-2.3389,21.327
24.8460,18.5886,17.4325,-3.6357,25.742
24.8550,23.4318,18.3142,-4.7980,30.124
24.8630,23.5424,18.4386,-5.0295,30.324
24.8710,28.2209,18.2490,-4.1798,33.866
24.8790,24.5156,17.8371,-3.7625,30.551
24.8880,16.7771,16.6453,-3.7967,23.936
24.8960,10.6968,15.4532,-3.9857,19.212
24.9050,9.9795,13.9708,-3.2948,17.482
24.9130,9.8960,11.8533,-3.3133,15.793
24.9250,10.0358,12.0625,-3.1478,16.004
24.9360,7.7283,9.4388,-4.2718,12.925
24.9730,5.4383,4.1513,-3.4940,7.682
24.9750,1.5723,0.6305,-3.8641,4.219
24.9760,-0.4488,-0.2257,-3.4077,3.444
24.9770,1.1197,-0.2025,-2.4995,2.746
24.9770,5.5245,-0.3779,-0.9913,5.625
24.9800,5.4414,-0.5097,-1.0424,5.564
24.9890,9.3452,-1.4863,-0.3144,9.468
24.9990,10.3007,-2.7452,-0.1217,10.661
25.0050,10.1215,-3.7973,-0.8399,10.843
25.0140,10.1538,-4.3752,-1.6842,11.184
25.0220,9.8849,-4.5008,-2.2237,11.087
25.0310,9.6495,-4.7569,-2.2479,10.991
25.0390,8.7379,-4.4011,-2.2107,10.030
25.0470,7.7039,-3.6017,-1.7928,8.691
25.0550,6.7426,-2.6310,-1.6484,7.423
25.0680,5.9122,-1.7012,-1.3663,6.302
25.0790,5.2943,-0.9234,-0.3253,5.384
25.0800,4.6343,-0.3924,0.3770,4.666
25.1050,4.2311,-0.6498,0.3801,4.298
25.1070,3.5763,-0.1652,0.0647,3.581
25.1130,2.5140,0.3760,-0.7630,2.654
25.1140,0.8490,0.9552,-1.1082,1.692
25.1240,-0.5800,1.6304,-0.6432,1.846
25.1310,-1.4416,2.2862,-0.0728,2.704
25.1420,-1.7320,2.6718,0.2901,3.197
25.1480,-2.2504,2.5560,0.3701,3.426
25.1570,-2.3248,2.8032,0.5986,3.691
25.1640,-2.2635,3.0809,0.5432,3.861
25.1780,-2.2222,3.4869,0.4184,4.156
25.1820,-2.7283,4.3139,0.2561,5.111
25.1910,-3.9368,5.6773,-0.0879,6.909
25.1980,-5.5128,7.4971,-0.2056,9.308
25.2150,-6.0242,7.5787,-0.1221,9.682
25.2260,-7.1715,8.8596,-0.2123,11.400
25.2270,-8.5894,9.1027,-0.6641,12.533
25.2650,-10.6034,8.1501,-2.1133,13.540
25.2710,-12.8732,7.7213,-3.0855,15.325
25.2730,-15.6761,8.5787,-2.4229,18.033
25.2750,-18.3280,10.0853,-0.7571,20.933
25.2770,-18.5060,10.1894,-0.6756,21.137
25.2780,-20.9258,10.7229,-1.2796,23.548
25.3090,-23.0852,9.4032,-1.6697,24.983
25.3100,-26.5313,6.4169,-1.2710,27.326
25.3110,-23.6087,4.3621,0.3718,24.011
25.3130,-20.0081,3.1436,1.7748,20.331
25.3330,-19.7750,3.0511,1.7637,20.087
25.3350,-18.0590,1.8892,1.9663,18.264
25.3350,-17.3448,1.8414,0.8752,17.464
25.3410,-13.1356,2.1931,2.5886,13.567
25.3500,-9.3852,2.5304,2.9167,10.149
25.3580,-3.6419,5.5920,6.3412,9.206
25.3890,5.9175,10.9951,7.1135,14.370
25.3900,6.0404,10.9217,6.9815,14.301
25.3910,15.4781,19.1406,7.6529,25.778
25.3920,5.4291,19.2571,1.2139,20.045
25.4140,-7.6227,9.9044,-1.3245,12.568
25.4160,-14.1121,-0.7267,-1.5121,14.211
25.4170,-14.4483,-9.6645,1.1289,17.419
25.4260,-12.7358,-13.0506,1.7131,18.315
25.4490,-12.5147,-13.0172,1.7614,18.143
25.4510,-11.0606,-8.1838,0.2633,13.762
25.4520,-10.3117,-3.1615,-0.2638,10.789
25.4810,-8.4650,0.1099,-1.0382,8.529
25.4830,-6.6849,2.0845,-2.3574,7.389
25.4840,-6.1748,3.0991,-1.6654,7.107
25.4860,-5.7703,3.3893,0.6701,6.726
25.5010,-5.6303,3.4050,0.7045,6.617
25.5030,-5.4661,2.4220,1.1295,6.084
25.5470,-4.4139,0.9719,0.7371,4.579
25.5480,-2.1841,-0.5343,0.8198,2.393
25.5490,-0.3428,-1.2753,0.5299,1.423
25.5510,0.0787,-0.7627,0.1803,0.788
25.5520,0.1401,-0.7418,0.2203,0.786
25.5530,-0.2143,0.1783,-0.1163,0.302
25.5900,-0.7881,0.8211,-0.5149,1.249
25.5910,-1.2274,1.0506,-0.8960,1.847
25.5920,-1.0831,1.0826,-1.2012,1.946
25.5930,-0.5730,0.7997,-1.5089,1.801
25.5950,0.0513,0.4382,-1.2324,1.309
25.6020,0.0882,0.4489,-1.2147,1.298
25.6090,0.9666,0.0287,-0.7685,1.235
25.6190,1.8820,-0.1358,-0.6547,1.997
25.6260,2.4859,-0.1808,-0.3818,2.522
25.6420,2.6022,0.0301,-0.2052,2.610
25.6430,2.2901,0.2617,-0.2216,2.316
25.6810,1.9043,0.4357,-0.1581,1.960
25.6820,1.9545,0.4542,-0.1349,2.011
25.6830,1.8923,0.6501,-0.0749,2.002
25.6840,2.2682,0.8865,-0.0768,2.436
25.6850,2.9893,0.8322,-0.3570,3.123
25.6930,4.0922,0.7226,-0.8756,4.247
25.7020,5.0105,0.4610,-1.5136,5.254
25.7100,5.2563,0.0483,-1.5083,5.469
25.7190,5.3774,0.0919,-1.5063,5.585
25.7270,4.6123,-0.2103,-1.4085,4.827
25.7350,3.3081,-0.1354,-0.8442,3.417
25.7440,1.9714,0.2754,-0.0699,1.992
25.7520,1.1300,0.9823,0.3067,1.528
25.7690,0.8204,1.6123,0.3838,1.849
25.7710,0.7467,2.0867,0.5142,2.275
25.8080,0.9075,2.1517,0.4844,2.385
25.8090,0.7937,2.4344,0.3724,2.587
25.8100,0.6798,2.6799,0.0995,2.767
25.8110,0.9174,3.2793,-0.4518,3.435
25.8130,1.7603,4.2115,-0.8346,4.640
25.8190,2.7589,5.2611,-1.1697,6.055
25.8280,2.9169,5.3340,-1.2389,6.204
25.8360,3.8823,6.3136,-1.2167,7.511
25.8450,4.5973,7.2405,-1.1798,8.657
25.8530,5.0447,7.9798,-1.1287,9.508
25.8620,5.4552,8.6851,-1.1854,10.324
25.8690,5.8460,9.5120,-1.5461,11.271
25.8780,6.6471,10.6951,-1.8390,12.726
25.8860,6.8206,10.8047,-1.9739,12.929
25.8950,8.3655,12.4470,-2.2979,15.172
25.9280,10.8071,14.1507,-2.3847,17.964
25.9300,13.1965,14.7187,-1.9351,19.863
25.9310,17.0137,15.3228,-2.9764,23.089
25.9330,21.1389,15.8650,-4.0946,26.745
25.9450,25.9334,17.2532,-2.3806,31.239
25.9520,26.0286,17.3841,-2.5636,31.405
25.9550,21.9266,18.1417,-4.2245,28.771
25.9620,15.6749,17.7323,-4.2905,24.053
25.9710,12.3970,17.5812,-5.5140,22.208
25.9780,10.9810,15.9718,-5.3729,20.113
25.9870,9.1499,12.6314,-4.7414,16.302
25.9950,7.0801,9.1466,-4.8383,12.538
26.0040,7.2185,9.3882,-4.6484,12.722
26.0280,6.6135,3.9062,-1.9313,7.920
26.0310,1.7092,1.1458,-2.4385,3.191
26.0320,-2.3458,-0.0194,-3.4925,4.207
26.0380,0.6868,0.4848,-2.7916,2.915
26.0460,7.4428,0.8808,-1.4914,7.642
26.0570,12.0941,0.3806,-0.6466,12.117
26.0710,11.9731,0.1917,-0.7767,12.000
26.0760,12.7614,-1.1167,-0.2287,12.812
26.0800,11.8092,-2.4136,-0.7885,12.079
26.1080,10.7984,-2.9419,-1.2967,11.267
26.1090,9.7059,-2.6281,-0.9452,10.100
26.1100,8.5056,-1.9868,-0.6225,8.757
26.1150,8.2601,-2.2592,-0.5645,8.582
26.1210,7.0693,-1.5021,-0.4726,7.243
26.1300,6.0306,-0.7717,-0.0594,6.080
26.1380,5.3997,-0.1804,0.1825,5.406
26.1460,5.0173,0.1955,0.6497,5.063
26.1550,4.6740,0.1698,0.6464,4.722
26.1630,3.7279,0.2179,-0.2914,3.746
26.1710,3.3363,-0.0307,-0.2632,3.347
26.1810,1.5203,0.2071,-0.9982,1.830
26.1880,-0.4088,0.5964,-0.9954,1.230
26.2070,-1.9840,0.9414,-0.7636,2.325
26.2080,-2.5418,1.2439,-0.3779,2.855
26.2140,-2.4706,1.3128,-0.0469,2.798
26.2230,-2.2752,1.1719,0.0984,2.561
26.2300,-2.7725,1.0590,0.1427,2.971
26.2390,-2.5852,1.0929,0.1876,2.813
26.2470,-2.6015,1.5070,0.3637,3.028
26.2560,-2.8371,2.3399,0.2720,3.688
26.2640,-3.5612,3.5907,0.1047,5.058
26.2720,-4.7962,5.0629,-0.1206,6.975
26.2810,-6.3794,6.6969,-0.2107,9.251
26.2890,-6.8745,6.7684,-0.1285,9.648
26.2980,-8.6286,7.8233,-0.1299,11.648
26.3060,-10.1896,7.7242,-0.4699,12.795
26.3140,-10.8837,7.0957,-1.6167,13.093
26.3260,-11.3920,7.2851,-1.8437,13.647
26.3310,-12.5360,8.1599,-0.6688,14.973
26.3570,-12.8372,8.2979,-0.6249,15.298
26.3580,-15.0371,8.6620,0.0123,17.354
26.3590,-18.0036,8.5237,-0.4364,19.924
26.3660,-21.4508,7.6582,-0.6596,22.786
26.3730,-23.8036,6.2273,-1.0318,24.626
26.3810,-25.7533,4.0985,-0.6521,26.086
26.3900,-22.4215,2.6320,0.5096,22.581
26.3980,-22.1937,2.5342,0.4599,22.343
26.4070,-19.3455,1.2897,0.6712,19.400
26.4150,-18.1377,-0.2307,0.5992,18.149
26.4230,-18.1257,-0.3946,-1.1757,18.168
26.4320,-12.7138,-0.0505,1.8367,12.846
26.4400,-5.0640,1.6248,2.1495,5.736
26.4520,0.9065,6.7128,4.9883,8.412
26.4570,1.0320,6.6593,4.9158,8.341
26.5610,15.4071,15.7965,9.5296,24.036
26.5630,17.3093,23.0022,2.9703,28.940
26.5640,0.8582,19.8855,-3.0572,20.137
26.5660,-8.8087,7.6966,-2.3214,11.926
26.5670,-11.6457,-4.7015,-0.9741,12.597
26.5680,-11.8306,-14.8560,-1.4286,19.045
26.5700,-11.5471,-14.8178,-1.3465,18.834
26.5750,-14.0797,-16.1619,-1.5594,21.491
26.5760,-15.4268,-8.9443,-2.6314,18.025
26.5770,-15.0032,-1.6013,-2.3341,15.268
26.5790,-11.5367,2.7120,-0.5766,11.865
26.5810,-7.7934,4.5468,0.2062,9.025
26.5820,-6.1281,4.0481,1.4531,7.487
26.5830,-5.9969,4.0621,1.4767,7.392
26.5840,-4.5256,2.9024,1.3303,5.538
26.6000,-3.1860,1.3349,1.6832,3.843
26.6010,-1.7586,-0.3463,1.3554,2.247
26.6280,-0.7148,-1.6326,1.3454,2.233
26.6290,-0.9165,-1.6645,0.8871,2.097
26.6300,-0.8559,-1.6399,0.9356,2.073
26.6330,-1.7426,-0.4823,0.1955,1.819
26.6490,-2.3026,0.9445,-0.7060,2.587
26.6490,-2.3595,1.8961,-1.6709,3.458
26.6780,-1.8734,2.0410,-1.7795,3.293
26.6790,-1.1382,1.4201,-1.6018,2.424
26.6800,-0.0731,0.6823,-1.4665,1.619
26.6860,-0.0483,0.6897,-1.4483,1.605
26.6920,1.3271,-0.1052,-1.2742,1.843
26.7000,2.3693,-0.5845,-1.0604,2.661
26.7090,2.9632,-0.5912,-0.5306,3.068
26.7170,2.8934,-0.2445,-0.2947,2.919
26.7260,2.2796,0.2790,-0.0002,2.297
26.7480,1.7499,0.7637,0.0790,1.911
26.7490,1.7950,0.7793,0.0970,1.959
26.7500,2.0460,1.0320,-0.2809,2.309
26.7590,3.0904,1.0716,-0.5651,3.319
26.7730,4.5777,0.9976,-0.8732,4.766
26.7760,5.8431,0.6348,-1.1863,5.996
26.7850,6.3213,-0.0341,-1.1891,6.432
26.7920,5.7603,-0.4199,-0.9383,5.851
26.8010,5.8966,-0.3683,-0.9436,5.983
26.8090,4.3749,-0.1943,-0.4775,4.405
26.8180,2.3503,0.0819,0.0688,2.353
26.8260,0.2524,0.4000,0.3202,0.571
26.8350,-1.1399,0.7577,0.6266,1.505
26.8440,-1.5162,1.1733,0.4184,1.962
26.8560,-1.0550,1.6656,0.1641,1.978
26.8600,-0.8923,1.7253,0.1357,1.947
26.8680,0.1106,2.3332,-0.3127,2.357
26.8810,1.6017,3.0982,-0.8470,3.589
26.8870,3.0135,4.0602,-1.2103,5.199
26.9320,4.1361,5.2810,-1.4215,6.857
26.9330,4.9894,6.4866,-1.4022,8.303
26.9340,5.1461,6.5638,-1.4656,8.468
26.9350,5.5306,7.4750,-1.5333,9.424
26.9360,5.7651,8.2955,-1.3553,10.193
26.9380,5.5344,9.1421,-1.7755,10.833
26.9440,5.7199,9.9367,-1.9341,11.627
26.9520,6.2005,10.9125,-2.0134,12.712
26.9600,7.9338,12.4015,-2.0031,14.858
26.9690,8.1156,12.5228,-2.1802,15.081
26.9770,10.9344,14.5079,-2.3514,18.319
26.9870,14.0333,16.0241,-2.2017,21.414
26.9940,18.1456,17.6329,-3.3474,25.522
27.0030,23.1088,18.3718,-4.5928,29.877
27.0110,28.5217,18.8386,-3.9155,34.405
27.0440,26.0338,18.5475,-3.1004,32.115
27.0460,26.1745,18.7342,-3.2091,32.348
27.0470,18.8429,17.4296,-3.3676,25.888
27.0550,10.9412,16.3243,-3.8564,20.027
27.0560,4.9963,14.2498,-4.2352,15.683
27.0660,1.6397,11.5850,-4.7478,12.627
27.0700,1.1163,7.2003,-4.0931,8.357
27.0780,4.0382,3.5739,-2.1623,5.810
27.0870,4.1072,3.7183,-2.0119,5.894
27.0950,1.4593,1.4515,-3.3592,3.940
27.1040,2.3273,0.6138,-3.9107,4.592
27.1120,7.2820,0.2575,-2.3896,7.668
27.1200,12.6198,-0.4100,-1.4874,12.714
27.1280,13.9041,-1.6203,-1.4013,14.068
27.1370,13.7845,-1.7833,-1.4686,13.977
27.1700,12.4749,-3.0570,-1.4850,12.930
27.1710,10.5992,-3.6441,-1.9767,11.381
27.1730,9.1709,-3.6098,-2.0336,10.063
27.1740,8.0248,-3.2741,-1.9397,8.881
27.1860,6.9909,-2.5257,-2.3181,7.786
27.1870,5.9519,-1.6938,-2.2054,6.569
27.1960,5.6702,-1.9890,-2.2137,6.404
27.2040,4.7344,-1.2123,-1.1445,5.019
27.2120,3.8467,-0.4213,-0.7131,3.935
27.2210,3.0333,0.1602,-0.6508,3.106
27.2290,2.5909,0.3811,-1.1882,2.876
27.2370,1.8153,0.5579,-1.6357,2.506
27.2460,0.5727,0.8501,-1.6635,1.954
27.2540,0.1308,0.6094,-1.6669,1.780
27.2630,-0.8194,1.1332,-1.2893,1.902
27.2710,-1.3033,1.7735,-0.7633,2.329
27.2790,-1.3365,2.3584,-0.6131,2.779
27.2970,-1.1487,2.8527,-0.4431,3.107
27.3000,-0.6309,3.0840,-0.2559,3.158
27.3310,-0.1391,3.3259,-0.1693,3.333
27.3320,-0.6707,3.2653,-0.0727,3.334
27.3330,-0.5520,3.8031,0.0438,3.843
27.3330,-0.9793,4.5259,-0.1178,4.632
27.3390,-2.2792,5.2556,-0.4642,5.747
27.3470,-4.2508,6.0488,-1.1152,7.477
27.3550,-6.5354,6.8243,-1.7204,9.604
27.3640,-8.5081,6.7187,-2.6333,11.156
27.3720,-8.9517,6.8277,-2.5945,11.553
27.3800,-11.0349,6.0521,-3.7893,13.144
27.3910,-12.9426,5.4643,-4.9756,14.904
27.3960,-15.3002,5.6197,-4.5023,16.910
27.4390,-18.1286,6.4329,-3.9409,19.636
27.4400,-20.3465,7.5240,-3.5231,21.977
27.4420,-20.4822,7.6130,-3.4256,22.118
27.4430,-22.5029,7.8274,-2.2812,23.934
27.4450,-23.9084,6.4441,-1.3750,24.800
