time,ax,ay,az,aT
175.3820,0.1989,-0.1108,0.1471,0.271
175.3890,0.1396,-0.0912,0.1831,0.248
175.3960,0.0623,-0.0913,0.1423,0.180
175.4080,0.0059,-0.0913,0.1988,0.219
175.4130,-0.1265,-0.0914,0.0997,0.185
175.4240,-0.1217,-0.0915,0.0996,0.182
175.4300,-0.1560,-0.0916,0.0223,0.182
175.4430,-0.0940,-0.0917,-0.0541,0.142
175.4570,-0.0143,-0.1111,-0.0719,0.133
175.4580,0.0255,-0.1496,-0.0509,0.160
175.4690,0.1422,-0.1875,0.0079,0.235
175.4720,0.1219,-0.1282,0.0657,0.189
175.4860,0.1216,-0.1277,0.0647,0.188
175.4890,0.0829,-0.0692,0.0642,0.126
175.4970,0.0839,-0.0890,-0.0133,0.123
175.5050,0.0658,-0.0891,-0.0320,0.115
175.5130,0.0091,-0.1085,0.0072,0.109
175.5220,0.0112,-0.0696,0.1037,0.125
175.5300,0.0331,-0.0700,0.0826,0.113
175.5430,0.0352,-0.0703,0.0814,0.113
175.5470,0.0756,-0.0707,0.0223,0.106
175.5650,0.0380,-0.1097,0.0995,0.153
175.5670,0.0793,-0.1288,0.0596,0.163
175.5720,0.0242,-0.1671,0.0977,0.195
175.5810,-0.0107,-0.1274,0.0775,0.149
175.5900,-0.0068,-0.1270,0.0766,0.148
175.5970,-0.0614,-0.0878,0.2111,0.237
175.6060,-0.0577,0.0088,0.0728,0.093
175.6140,-0.0741,-0.0314,0.0914,0.122
175.6230,-0.0128,-0.1096,0.0905,0.143
175.6310,0.0095,-0.0901,0.0700,0.114
175.6400,0.0507,-0.1095,0.1463,0.190
175.6480,0.0528,-0.1092,0.1438,0.188
175.6570,0.1326,-0.1090,0.2189,0.278
175.6650,0.1340,-0.1668,0.0993,0.236
175.6730,0.0391,-0.1852,-0.0182,0.190
175.6980,-0.1507,-0.1839,-0.0943,0.256
175.6990,-0.3766,-0.1054,-0.0912,0.402
175.7000,-0.5031,-0.1247,-0.1651,0.544
175.7070,-0.4934,-0.1243,-0.1610,0.534
175.7160,-0.5429,-0.0466,-0.0798,0.551
175.7250,-0.5732,-0.0473,-0.0387,0.576
175.7320,-0.4497,-0.0673,0.0978,0.465
175.7410,-0.3293,-0.0676,0.2517,0.420
175.7490,-0.2698,-0.0293,0.4035,0.486
175.7570,-0.1737,0.0085,0.4948,0.524
175.7650,-0.1761,0.0071,0.4881,0.519
175.7740,-0.0434,0.0443,0.4052,0.410
175.7820,0.0683,0.0230,0.4019,0.408
175.7910,0.1406,-0.0367,0.3218,0.353
175.7990,0.0965,-0.1537,0.2047,0.274
175.8220,0.0148,-0.1336,0.1864,0.230
175.8230,0.0115,-0.1332,0.1878,0.231
175.8240,-0.0885,-0.1522,0.2475,0.304
175.8370,-0.1099,-0.1128,0.1134,0.194
175.8410,0.0040,-0.0934,0.0206,0.096
175.8500,0.0387,-0.0356,-0.0125,0.054
175.8580,0.1312,-0.0366,-0.0256,0.139
175.8660,0.2419,-0.0956,-0.0971,0.278
175.8750,0.2352,-0.0957,-0.0908,0.270
175.8850,0.3652,-0.1732,-0.1809,0.443
175.8920,0.3976,-0.3270,-0.2112,0.556
175.9010,0.2560,-0.3047,-0.1631,0.430
175.9080,0.0785,-0.2053,-0.0376,0.223
175.9170,-0.1153,-0.1459,0.1057,0.214
175.9250,-0.3059,-0.1455,0.2081,0.398
175.9330,-0.3005,-0.1450,0.2127,0.396
175.9420,-0.3929,-0.1059,0.1988,0.453
175.9500,-0.4657,-0.1253,0.2835,0.559
175.9590,-0.3841,-0.1252,0.3686,0.547
175.9700,-0.3241,-0.0865,0.4338,0.548
175.9760,-0.1498,-0.0869,0.3439,0.385
175.9910,-0.1523,-0.0874,0.3527,0.394
175.9930,0.0191,-0.1652,0.2657,0.313
176.0000,0.3429,-0.1452,0.3353,0.501
176.0100,0.4885,-0.1062,0.3078,0.587
176.0170,0.5561,-0.0677,0.3006,0.636
176.0250,0.4895,-0.0491,0.2356,0.545
176.0340,0.4252,-0.0694,0.0947,0.441
176.0430,0.4194,-0.0701,0.1111,0.439
176.0510,0.3546,-0.0514,0.0691,0.365
176.0590,0.3864,-0.0910,0.1242,0.416
176.0670,0.3785,-0.1299,0.0822,0.409
176.0760,0.4485,-0.1683,0.0422,0.481
176.0840,0.4986,-0.1868,0.1391,0.550
176.1030,0.5294,-0.2438,0.1768,0.609
176.1050,0.5226,-0.2419,0.1951,0.608
176.1190,0.5180,-0.2400,0.3483,0.669
176.1200,0.4179,-0.1994,0.3446,0.577
176.1270,0.2620,-0.1208,0.1872,0.344
176.1350,0.2637,-0.0432,0.1683,0.316
176.1430,0.2462,0.0141,0.1694,0.299
176.1510,0.1136,0.0318,0.2288,0.257
176.1600,0.1191,0.0301,0.2493,0.278
176.1700,0.0675,0.0671,0.4053,0.416
176.1770,-0.0602,0.0843,0.4241,0.437
176.1860,-0.1474,0.0819,0.1727,0.241
176.1940,-0.1555,-0.0364,0.1000,0.188
176.2030,-0.1432,-0.1529,0.0290,0.212
176.2100,-0.1303,-0.1517,0.0556,0.208
176.2360,-0.0788,-0.2472,0.1404,0.295
176.2440,0.0679,-0.3025,-0.0077,0.310
176.2440,-0.0213,-0.1636,0.1753,0.241
176.2450,0.4689,0.0122,-0.1078,0.481
176.2520,0.6447,0.0697,0.0397,0.650
176.2610,1.0350,-0.1251,0.2621,1.075
176.2730,1.0377,-0.1237,0.2869,1.084
176.2770,1.1796,-0.2577,0.5038,1.308
176.3070,1.2816,-0.3704,0.6808,1.498
176.3080,1.2866,-0.3460,0.8773,1.595
176.3090,0.7913,-0.0896,1.0734,1.337
176.3110,0.3648,0.2021,1.1724,1.244
176.3190,0.1994,0.6061,0.8463,1.060
176.3300,0.2306,0.5987,0.8769,1.087
176.3360,0.6113,0.4758,0.3696,0.858
176.3440,0.8552,0.0650,0.1996,0.881
176.3530,1.2147,-0.3398,-0.5094,1.360
176.3620,1.7651,-0.3901,-1.3605,2.262
176.3700,2.6494,-0.2672,-1.5794,3.096
176.3780,2.9060,-0.3204,-1.6439,3.354
176.3870,2.9473,-0.3149,-1.5961,3.367
176.3990,2.5592,-0.6223,-2.3345,3.519
176.4060,1.6064,-0.5176,-2.2681,2.827
176.4120,0.4212,-0.2761,-1.0135,1.132
176.4200,-0.6246,0.0819,-0.6884,0.933
176.4290,-1.5514,0.3417,-0.7158,1.742
176.4370,-1.4975,0.3471,-0.6820,1.682
176.4460,-2.1311,0.3132,-0.1044,2.157
176.4540,-2.0417,0.0636,-0.1201,2.046
176.4630,-1.6033,-0.2246,-0.3712,1.661
176.4740,-1.3445,-0.4731,-0.3088,1.458
176.4790,-1.3039,-0.4276,-0.5415,1.475
176.4890,-1.3837,-0.2844,-0.5003,1.499
176.4960,-1.3471,-0.2783,-0.4778,1.456
176.5060,-1.4862,-0.2134,-0.1426,1.508
176.5130,-1.0399,0.0862,-0.4742,1.146
176.5330,-0.1673,0.1698,-0.9414,0.971
176.5360,0.4093,0.0770,-0.6262,0.752
176.5440,0.8879,0.0818,-0.7070,1.138
176.5460,1.3874,0.1846,-0.8486,1.637
176.5540,1.4206,0.1899,-0.8328,1.658
176.5630,0.6927,-0.0392,-1.0325,1.244
176.5720,-0.1339,-0.0333,-0.9981,1.008
176.5800,-0.1010,0.2071,-0.9844,1.011
176.5890,-1.3573,0.2122,-0.5813,1.492
176.5970,-2.8430,0.0413,-0.1819,2.849
176.6050,-3.1993,-0.5023,0.0593,3.239
176.6130,-3.1765,-0.4985,0.0643,3.216
176.6220,-2.0524,-0.2816,-0.1085,2.074
176.6300,-1.3507,-0.1639,-0.7485,1.553
176.6390,-0.7297,-0.0656,-0.6208,0.960
176.6520,0.2801,0.5800,-0.2017,0.675
176.6550,0.8007,0.8720,-0.3528,1.235
176.6670,0.7994,0.8711,-0.3452,1.232
176.6740,0.3524,0.4012,-0.7283,0.903
176.6810,0.0422,0.1468,-0.7424,0.758
176.6880,-0.3641,-0.4401,-0.6032,0.831
176.6980,-0.9451,-1.0846,-0.4458,1.506
176.7060,-1.2543,-1.4544,-0.5052,1.986
176.7140,-1.1764,-1.3542,-0.5048,1.864
176.7220,-1.1795,-1.3522,-0.5027,1.863
176.7310,-0.9674,-1.0957,-0.6767,1.611
176.7390,-0.9903,-1.1138,-0.6548,1.628
176.7480,-1.0144,-1.0734,-0.4966,1.558
176.7550,-0.6895,-0.9751,-0.0474,1.195
176.7640,-0.6029,-0.7802,0.2797,1.025
176.7730,-0.7905,-0.6641,0.2136,1.054
176.7810,-0.8000,-0.6651,0.2082,1.061
176.8070,-1.1594,-0.8223,0.3796,1.471
176.8080,-1.2606,-1.2338,0.5473,1.847
176.8100,-0.7543,-1.4687,0.5352,1.736
176.8140,0.1037,-1.4095,0.2483,1.435
176.8230,1.0788,-1.1348,-0.0564,1.567
176.8310,1.4506,-0.8206,-0.3392,1.701
176.8400,1.4560,-0.8191,-0.3455,1.706
176.8480,1.5999,-0.0341,-0.1736,1.610
176.8570,1.9762,1.0231,0.0190,2.225
176.8650,2.2698,1.9999,-1.1161,3.225
176.8740,2.4410,3.0533,-1.7347,4.277
176.8820,1.7509,3.3220,-1.4683,4.032
176.8900,1.7514,3.3160,-1.4617,4.025
176.8990,0.5023,2.3893,-0.8167,2.574
176.9070,-0.6060,0.9941,-0.0809,1.167
176.9150,-1.2044,-0.1838,0.3161,1.259
176.9240,-1.3323,-0.6351,0.3398,1.515
176.9320,-1.3414,-0.5566,0.4832,1.531
176.9410,-1.3878,-0.4386,0.4514,1.524
176.9490,-1.3748,-0.4382,0.4392,1.508
176.9680,-1.2278,-0.3204,0.0960,1.273
176.9680,-0.8903,-0.3795,-0.0685,0.970
176.9740,-0.5569,-0.5956,0.0993,0.821
176.9830,-0.3431,-0.8704,0.2057,0.958
176.9900,-0.2283,-1.0470,0.0576,1.073
177.0000,0.0232,-1.1054,0.0485,1.107
177.0080,0.0188,-1.1050,0.0404,1.106
177.0160,0.3471,-0.9479,-0.0057,1.009
177.0250,0.5187,-0.7711,-0.1673,0.944
177.0330,0.5733,-0.6532,-0.1511,0.882
177.0410,0.5500,-0.5745,-0.1928,0.818
177.0500,0.4301,-0.3392,-0.1558,0.569
177.0590,0.1750,-0.1236,-0.1772,0.278
177.0670,0.1751,-0.1238,-0.1789,0.279
177.0740,-0.0407,0.0325,-0.1025,0.115
177.0950,0.0172,0.3255,-0.0060,0.326
177.0970,0.0744,0.5005,-0.0654,0.510
177.1000,0.0729,0.5383,-0.0647,0.547
177.1090,0.1114,0.4391,-0.0644,0.458
177.1170,0.1116,0.4378,-0.0660,0.457
177.1260,0.1130,0.2407,-0.1477,0.304
177.1330,-0.0021,0.1223,-0.1122,0.166
177.1420,-0.0389,-0.0348,-0.0568,0.077
177.1500,-0.0961,-0.2114,0.0185,0.233
177.1590,0.1783,-0.0745,0.0155,0.194
177.1670,0.2581,-0.0355,-0.0852,0.274
177.1750,0.2623,-0.0352,-0.0863,0.278
177.1840,0.3058,-0.1327,0.0104,0.333
177.1930,0.2110,-0.2303,0.0469,0.316
177.2020,0.1944,-0.3864,0.0252,0.433
177.2260,0.1783,-0.3659,0.1219,0.425
177.2320,0.1245,-0.3060,0.0618,0.336
177.2330,0.0919,-0.1677,0.0612,0.201
177.2340,0.0994,-0.1665,0.0612,0.203
177.2430,0.0285,-0.1653,0.0218,0.169
177.2530,0.0555,-0.1055,-0.1155,0.166
177.2590,0.1412,-0.0653,-0.1349,0.206
177.2700,0.1682,-0.0838,-0.1930,0.269
177.2760,-0.0395,-0.0043,-0.2118,0.215
177.2870,-0.2081,0.0749,-0.3479,0.412
177.2930,-0.2014,0.0755,-0.3464,0.408
177.3030,-0.4900,0.0955,-0.3248,0.596
177.3100,-0.6620,0.0957,-0.2254,0.706
177.3190,-0.7370,-0.0219,-0.0884,0.743
177.3270,-0.8127,-0.1395,-0.1682,0.842
177.3350,-0.8896,-0.1007,-0.1701,0.911
177.3430,-0.8887,-0.1012,-0.1729,0.911
177.3550,-0.9849,-0.0431,-0.0984,0.991
177.3630,-0.8857,-0.0245,-0.0256,0.886
177.3830,-0.4946,-0.0061,0.0077,0.495
177.3840,0.1103,-0.0269,-0.0557,0.126
177.3850,0.6746,-0.0084,0.0194,0.675
177.3940,0.9052,-0.0484,-0.0415,0.907
177.4030,0.9017,-0.0489,-0.0427,0.904
177.4120,0.8007,-0.1863,-0.1611,0.838
177.4190,0.5833,-0.2646,-0.1027,0.649
177.4290,0.3239,-0.3009,-0.0048,0.442
177.4350,0.1647,-0.2594,-0.1406,0.338
177.4450,0.1432,-0.2184,-0.1383,0.295
177.4520,-0.0135,-0.1585,-0.0964,0.186
177.4610,-0.0127,-0.1574,-0.0945,0.184
177.4690,-0.2438,-0.1177,-0.0931,0.286
177.4780,-0.3938,-0.0399,-0.1498,0.423
177.4860,-0.4644,-0.0212,-0.1290,0.482
177.4980,-0.3226,-0.0030,-0.0700,0.330
177.5040,-0.2220,-0.0044,-0.0502,0.228
177.5320,-0.1431,0.0134,-0.0306,0.147
177.5340,-0.1438,0.0115,-0.0303,0.147
177.5350,-0.0292,0.0481,-0.0305,0.064
177.5370,0.0638,-0.0513,-0.0890,0.121
177.5440,0.0966,-0.0720,-0.0884,0.149
177.5540,0.1672,-0.0925,-0.1844,0.266
177.5610,0.0824,-0.0933,-0.2787,0.305
177.5730,0.0766,-0.0940,-0.2747,0.300
177.5780,0.0128,-0.1140,-0.1355,0.178
177.5890,-0.0697,-0.0951,-0.1726,0.209
177.5950,-0.1514,-0.1346,-0.2094,0.291
177.6040,-0.1165,-0.1543,-0.1490,0.244
177.6120,-0.1020,-0.1544,-0.1668,0.249
177.6350,-0.0105,-0.1739,-0.1456,0.227
177.6370,-0.0172,-0.1738,-0.1437,0.226
177.6380,-0.0048,-0.1157,-0.1419,0.183
177.6450,0.1819,-0.0970,-0.0049,0.206
177.6570,0.3281,-0.0397,0.0149,0.331
177.6620,0.3760,-0.0218,-0.0039,0.377
177.6710,0.3269,0.0153,-0.0030,0.327
177.6790,0.2591,-0.0255,-0.0020,0.260
177.6870,0.2509,-0.0269,-0.0010,0.252
177.6960,0.1274,-0.0089,0.0001,0.128
177.7050,0.0251,-0.0491,0.0401,0.068
177.7120,0.0016,-0.0501,0.0409,0.065
177.7210,0.0365,-0.0510,-0.0164,0.065
177.7290,0.0325,-0.1100,-0.0539,0.127
177.7370,0.0287,-0.1100,-0.0909,0.146
177.7470,0.0256,-0.0713,-0.0882,0.116
177.7540,0.0615,-0.0330,-0.0270,0.075
177.7680,0.0582,-0.0726,-0.0441,0.103
177.7710,0.0165,-0.0343,-0.0613,0.072
177.7820,-0.0437,0.0228,0.0181,0.053
177.7970,-0.1033,-0.0563,0.0581,0.131
177.7980,-0.1045,-0.0569,0.0591,0.133
177.8060,-0.0866,-0.0384,0.0013,0.095
177.8140,-0.1462,-0.0587,-0.0367,0.162
177.8220,-0.1082,-0.0788,0.0227,0.136
177.8300,0.0064,-0.0793,-0.0153,0.081
177.8380,0.0227,-0.1378,-0.0335,0.144
177.8470,-0.0002,-0.1762,-0.1097,0.208
177.8560,-0.0037,-0.1754,-0.1073,0.206
177.8640,-0.0847,-0.1746,-0.1437,0.242
177.8750,-0.0877,-0.1160,-0.1414,0.203
177.8800,-0.1485,-0.0969,-0.1589,0.238
177.8910,-0.1311,-0.0200,-0.0600,0.146
177.9040,-0.1335,0.0171,-0.0595,0.147
177.9060,-0.1164,0.0149,-0.0400,0.124
177.9140,-0.1183,0.0128,-0.0406,0.126
177.9240,-0.0043,-0.0281,-0.0611,0.067
177.9350,0.1274,-0.0684,-0.0430,0.151
177.9420,0.2386,-0.1275,0.0137,0.271
177.9480,0.3298,-0.0888,0.0508,0.345
177.9560,0.3628,-0.0699,0.0295,0.371
177.9640,0.3570,-0.0705,0.0279,0.365
177.9720,0.3708,-0.0323,0.0073,0.372
177.9810,0.2491,-0.0140,0.0258,0.251
177.9890,0.1871,-0.0347,0.0055,0.190
177.9970,0.1644,-0.0743,0.0629,0.191
178.0070,0.1810,-0.0941,0.1195,0.236
178.0140,0.1392,-0.0750,0.1558,0.222
178.0230,0.1370,-0.0753,0.1532,0.219
178.0310,0.1161,-0.0756,0.0930,0.167
178.0400,0.0954,-0.0951,0.0339,0.139
178.0690,0.1333,-0.0757,0.0533,0.162
178.0720,0.0941,-0.0757,-0.0435,0.128
178.0730,0.0367,-0.0757,-0.0420,0.094
178.0740,-0.0395,-0.0563,-0.0211,0.072
178.0840,-0.0373,-0.0565,-0.0202,0.071
178.0900,-0.1124,-0.0762,-0.0582,0.148
178.0980,-0.0899,-0.0762,-0.0185,0.119
178.1070,-0.0291,-0.1150,0.0204,0.120
178.1150,0.0500,-0.1145,-0.0568,0.137
178.1240,0.1282,-0.0946,-0.0744,0.176
178.1320,0.1090,-0.0749,-0.0339,0.137
178.1400,0.1097,-0.0749,-0.0327,0.137
178.1490,0.0527,-0.0554,-0.0123,0.077
178.1570,-0.1191,-0.0749,-0.0310,0.144
178.1660,-0.1722,-0.0555,-0.0500,0.188
178.1740,-0.1479,-0.0944,-0.0105,0.176
178.1890,-0.1052,-0.0942,0.0089,0.142
178.1910,-0.1023,-0.0941,0.0082,0.139
178.2150,-0.0027,-0.0747,0.0465,0.088
178.2160,0.0187,-0.0747,0.0848,0.115
178.2170,0.0402,-0.1133,0.0451,0.128
178.2240,0.0615,-0.1321,0.0250,0.148
178.2330,0.0246,-0.0733,0.0246,0.081
178.2410,0.0460,-0.0926,-0.0142,0.104
178.2490,0.0475,-0.0924,-0.0139,0.105
178.2580,-0.0668,-0.0342,0.0054,0.075
178.2660,-0.0633,-0.0734,0.0049,0.097
178.2750,-0.0795,-0.0929,0.0431,0.130
178.2830,-0.0573,-0.0927,0.1005,0.148
178.2920,0.0032,-0.1118,0.0800,0.138
178.3000,0.0053,-0.0920,0.0790,0.121
178.3100,0.0076,-0.0917,0.0780,0.121
178.3170,-0.0098,-0.0915,0.0576,0.109
178.3250,0.0502,-0.0720,0.0761,0.116
178.3340,-0.0644,-0.1108,0.0559,0.140
178.3430,-0.0421,-0.1102,0.0171,0.119
178.3630,-0.1360,-0.1097,-0.0794,0.192
178.3640,-0.0934,-0.0898,0.0187,0.131
178.3670,-0.0904,-0.0897,0.0185,0.129
178.3760,-0.0099,-0.0702,-0.0591,0.092
178.3840,0.0699,-0.1283,-0.0002,0.146
178.3920,0.1292,-0.1082,0.0386,0.173
178.4010,0.0329,-0.0690,0.0380,0.085
178.4100,-0.0234,-0.1078,-0.0009,0.110
178.4180,-0.0212,-0.1073,-0.0003,0.109
178.4260,-0.0966,-0.0874,0.0585,0.143
178.4340,-0.0744,-0.0872,0.0200,0.116
178.4430,-0.0524,-0.1257,0.0979,0.168
178.4510,-0.0501,-0.0670,0.0008,0.084
178.4600,-0.0094,-0.0670,0.0409,0.079
178.4720,-0.0273,-0.0477,0.0609,0.082
178.4770,-0.0255,-0.0480,0.0611,0.082
178.4940,-0.0432,-0.0484,0.0418,0.077
178.4950,-0.0224,-0.0682,0.1194,0.139
178.5010,-0.0019,-0.0490,0.1381,0.146
178.5100,-0.0589,-0.0301,0.1174,0.135
178.5180,-0.0963,-0.0308,0.0390,0.108
178.5280,-0.1527,-0.1089,-0.0378,0.191
178.5350,-0.1503,-0.1085,-0.0360,0.189
178.5440,-0.0903,-0.1082,0.0044,0.141
178.5520,-0.0894,-0.1466,-0.0140,0.172
178.5610,-0.0696,-0.1072,0.0450,0.135
178.5680,-0.0305,-0.1070,-0.0514,0.123
178.5780,-0.0304,-0.1067,-0.0884,0.142
178.5850,-0.0885,-0.0871,-0.0667,0.141
178.5940,-0.0878,-0.0871,-0.0645,0.139
178.6020,-0.0681,-0.0679,-0.0046,0.096
178.6140,-0.0290,-0.0876,0.0347,0.099
178.6220,-0.0096,-0.0877,0.1121,0.143
178.6450,0.0675,-0.0878,0.0916,0.144
178.6450,0.1438,-0.0685,0.1102,0.194
178.6460,0.1421,-0.0688,0.1093,0.192
178.6550,0.2378,-0.1076,0.0505,0.266
178.6610,0.2553,-0.1265,-0.0462,0.289
178.6700,0.2146,-0.1258,-0.0646,0.257
178.6780,0.2913,-0.0477,-0.0053,0.295
178.6860,0.0196,-0.0866,-0.0630,0.109
178.6940,-0.2285,-0.0669,-0.0620,0.246
178.7030,-0.2213,-0.0668,-0.0612,0.239
178.7120,-0.6199,-0.0474,-0.0808,0.627
178.7200,-0.8012,-0.0285,0.0342,0.802
178.7280,-0.7493,-0.0489,0.0889,0.756
178.7370,-0.4278,-0.0498,0.0847,0.439
178.7450,0.0239,-0.0313,0.1391,0.145
178.7640,0.3723,-0.0904,0.0965,0.395
178.7650,0.3678,-0.0906,0.0932,0.390
178.7700,0.7113,-0.1294,-0.0057,0.723
178.7800,0.7023,-0.1094,-0.0438,0.712
178.7870,0.4814,-0.1090,-0.0042,0.494
178.7970,0.2636,-0.1666,-0.0045,0.312
178.8040,0.1068,-0.1655,0.0531,0.204
178.8130,0.0874,-0.1643,0.0137,0.187
178.8200,0.0868,-0.1633,0.0136,0.185
178.8290,0.0861,-0.1622,0.0525,0.191
178.8370,0.0860,-0.1223,0.0333,0.153
178.8460,0.1248,-0.1217,0.0917,0.197
178.8540,0.1632,-0.1018,0.1099,0.221
178.8630,0.1631,-0.1787,0.1085,0.265
178.8710,0.1635,-0.1771,0.1078,0.264
178.8900,0.0288,-0.1561,0.0883,0.182
178.8970,-0.0457,-0.1739,-0.0081,0.180
178.8980,-0.0421,-0.0949,-0.0843,0.134
178.9040,-0.1168,-0.0365,0.0339,0.127
178.9140,-0.1911,0.0017,-0.0038,0.191
178.9210,-0.1289,0.0008,-0.0023,0.129
178.9290,-0.1257,-0.0002,-0.0011,0.126
178.9370,-0.0647,-0.0205,-0.0576,0.089
178.9460,0.0534,-0.0986,-0.0555,0.125
178.9550,0.1121,-0.0788,0.0047,0.137
178.9630,0.1315,-0.0592,0.1031,0.177
178.9720,0.1314,-0.0206,0.1227,0.181
178.9790,0.1122,-0.0018,0.1034,0.153
178.9900,0.1130,-0.0025,0.1040,0.154
178.9960,-0.0023,-0.0225,0.0659,0.070
179.0050,0.0193,-0.0424,0.0086,0.047
179.0140,-0.0559,-0.1005,0.0876,0.145
179.0220,-0.0721,-0.0999,0.0496,0.133
179.0310,-0.0886,-0.1573,0.0703,0.194
179.0400,-0.0662,-0.1946,0.0714,0.218
179.0530,-0.0631,-0.1926,0.0724,0.215
179.0730,-0.0986,-0.1327,0.0153,0.166
179.0740,-0.0948,-0.1316,0.0168,0.163
179.0750,-0.1105,-0.0725,0.1150,0.175
179.0800,-0.0102,-0.0723,0.0958,0.120
179.0890,0.0696,-0.1107,0.0385,0.136
179.0970,0.0711,-0.1097,0.0409,0.137
179.1060,0.0539,-0.1087,0.2752,0.301
179.1170,0.0373,-0.0884,0.2351,0.254
179.1230,0.0991,-0.0876,0.1761,0.220
179.1320,0.1225,-0.1059,0.1569,0.225
179.1400,0.0684,-0.1046,0.1189,0.172
179.1490,0.1505,-0.0646,0.0815,0.183
179.1560,0.1546,-0.0637,0.0830,0.187
179.1690,0.1787,-0.0628,-0.0311,0.192
179.1740,0.1639,-0.1197,0.0119,0.203
179.1870,0.1685,-0.1952,0.0736,0.268
179.1960,0.1733,-0.2310,0.0378,0.291
179.1980,0.1784,-0.2080,0.0417,0.277
179.2060,0.2223,-0.1273,0.1622,0.303
179.2150,0.2274,-0.1249,0.1654,0.308
179.2230,0.2525,-0.1030,0.2077,0.343
179.2320,0.2970,-0.1006,0.1920,0.368
179.2400,0.2249,-0.1176,0.1767,0.309
179.2490,0.2702,-0.0954,0.1428,0.320
179.2570,0.2572,-0.0735,0.1675,0.316
179.2650,-0.0453,-0.0325,0.1727,0.181
179.2760,0.1793,-0.0306,0.1782,0.255
179.2820,0.0528,-0.1059,0.2037,0.236
179.2920,0.2567,-0.1027,0.2871,0.399
179.2990,0.2458,-0.1381,0.1958,0.343
179.3130,0.3520,-0.1919,0.1267,0.420
179.3180,0.4964,-0.1480,0.0790,0.524
179.3400,0.5044,-0.1430,0.0909,0.532
179.3400,0.4737,-0.2539,-0.0707,0.542
179.3410,0.4238,-0.3634,-0.1142,0.570
179.3490,0.3355,-0.2973,-0.0993,0.459
179.3580,0.2884,-0.1352,-0.1810,0.366
179.3660,0.0708,0.0059,-0.1840,0.197
179.3740,-0.0830,0.0681,0.0640,0.125
179.3820,-0.0599,0.0714,0.0752,0.120
179.3910,-0.1537,0.0745,0.2406,0.295
179.3990,-0.0345,0.0776,0.2304,0.246
179.4080,0.0630,0.0615,0.1440,0.169
179.4170,0.0040,-0.1478,0.0204,0.149
179.4390,-0.0369,-0.3352,0.2078,0.396
179.4400,0.6740,0.1175,0.5459,0.875
179.4410,0.6846,0.1199,0.5488,0.886
179.4530,0.2024,0.2407,0.4194,0.524
179.4580,-0.6199,-0.2773,0.6058,0.910
179.4680,-0.6833,-0.5189,0.7489,1.139
179.4750,-0.6926,-0.7195,0.4624,1.101
179.4830,-0.7781,-0.6653,0.0468,1.025
179.4910,-0.7451,-0.6497,0.0647,0.991
179.5000,-0.6738,-0.5567,-0.3036,0.925
179.5080,-0.4892,-0.6395,-0.0294,0.806
179.5180,0.0194,-0.8569,0.0277,0.858
179.5250,0.6366,-0.7810,-0.4950,1.123
179.5340,1.0718,-0.3959,-0.8914,1.449
179.5420,1.2310,0.0427,-0.9313,1.544
179.5500,1.2329,0.0497,-0.8933,1.523
179.5590,1.2151,0.3658,-0.7993,1.500
179.5730,0.7429,0.5888,-0.6390,1.143
179.5980,0.0187,0.6154,-0.4033,0.736
179.5980,-0.5655,0.4656,0.1225,0.743
179.5990,-0.7367,0.3353,0.3896,0.898
179.6010,-0.4183,0.2637,0.0285,0.495
179.6090,-0.3937,0.2711,0.0417,0.480
179.6180,0.1596,0.3966,-0.5104,0.666
179.6260,0.5942,0.5416,-0.9238,1.225
179.6340,0.5193,0.4708,-1.2011,1.391
179.6430,-0.1615,0.3209,-1.1307,1.186
179.6510,-0.7237,0.1506,-0.9095,1.172
179.6600,-0.9719,0.1363,-0.6341,1.168
179.6680,-0.9451,0.1410,-0.6367,1.148
179.6760,-0.8590,0.0866,-0.4661,0.981
179.6840,-0.3622,0.0516,-0.3164,0.484
179.6930,0.0344,-0.1791,-0.2842,0.338
179.7020,0.2925,-0.2924,-0.2339,0.475
179.7140,0.3169,-0.3267,0.0505,0.458
179.7230,0.3435,-0.3211,0.0412,0.472
179.7390,0.4886,-0.3737,0.2280,0.656
179.7410,0.7719,-0.3278,0.1214,0.847
179.7440,1.1157,-0.1637,0.1917,1.144
179.7520,1.4415,-0.1165,-0.0313,1.447
179.7600,1.5541,-0.0487,-0.3312,1.590
179.7690,1.3168,-0.1367,-0.4935,1.413
179.7770,1.3553,-0.1262,-0.4990,1.450
179.7860,1.0225,-0.1153,-0.4260,1.114
179.7940,0.7699,-0.0256,-0.5296,0.935
179.8020,0.4805,0.0450,-0.4960,0.692
179.8110,0.3293,0.0571,-0.2675,0.428
179.8200,0.0033,0.1868,0.3699,0.414
179.8280,-0.1643,0.2772,0.5340,0.624
179.8360,-0.1151,0.2894,0.5198,0.606
179.8440,0.0537,0.3611,0.4652,0.591
179.8540,0.4197,0.4923,0.4302,0.777
179.8690,0.6500,0.5654,0.0229,0.862
179.8700,0.8633,0.6790,-0.4616,1.191
179.8880,0.7843,0.5979,-0.7482,1.238
179.8890,0.6091,0.4592,-0.8780,1.163
179.8950,0.6700,0.4777,-0.8919,1.214
179.9030,0.5163,0.4379,-0.6531,0.941
179.9120,0.4228,0.4185,-0.6705,0.896
179.9200,0.5655,0.5368,-0.7085,1.054
179.9280,0.9056,0.6952,-0.7280,1.354
179.9360,1.3645,0.8350,-0.7875,1.783
179.9450,1.4335,0.8586,-0.8079,1.856
179.9530,1.7406,0.8841,-0.6727,2.065
179.9620,1.5826,0.9317,-0.6573,1.951
179.9700,1.5465,1.3345,-0.8172,2.200
179.9780,1.7881,2.0331,-1.1891,2.957
179.9870,2.4456,3.2430,-1.5783,4.358
180.0040,3.0471,4.4334,-1.5971,5.612
180.0080,3.1423,4.4691,-1.6191,5.698
180.0120,4.1627,5.4670,-1.1569,6.968
180.0230,4.6983,5.9380,-0.2535,7.576
180.0290,4.9076,5.8262,0.2935,7.623
180.0370,5.2590,5.3678,0.4887,7.531
180.0460,5.4598,5.0333,0.3280,7.433
180.0560,5.4186,5.0812,0.0089,7.428
180.0620,5.5621,5.1576,-0.0311,7.585
180.0720,5.5539,5.4170,-0.7365,7.793
180.0790,5.5713,5.8397,-1.6203,8.232
180.0890,5.3975,6.2094,-2.1184,8.496
180.0960,4.8584,6.3122,-2.4690,8.339
180.1050,4.2450,6.1282,-3.1378,8.088
180.1130,3.6083,5.7891,-3.1473,7.513
180.1220,3.7697,5.9008,-3.2290,7.711
180.1300,3.0060,5.2888,-2.4629,6.563
180.1470,2.6242,4.5372,-1.0197,5.340
180.1500,2.2715,3.5882,-0.6535,4.297
180.1550,1.4818,3.0521,-1.7242,3.806
180.1640,1.7807,3.1804,-3.4178,4.997
180.1720,1.8906,3.2821,-3.4678,5.135
180.1800,3.7083,3.7249,-2.2860,5.732
180.1890,5.7813,3.2339,0.0862,6.625
180.1990,7.2616,1.9031,0.0721,7.507
180.2050,8.4700,0.6797,-0.4908,8.511
180.2150,8.7469,-0.4118,-0.8367,8.796
180.2230,7.5676,-0.8606,-1.0150,7.684
180.2310,7.5743,-0.8285,-0.9251,7.675
180.2390,5.9177,-0.8746,-0.6538,6.018
180.2480,4.2872,-0.8006,-0.4816,4.388
180.2560,2.8406,-0.7624,-0.5709,2.996
180.2640,1.7348,-0.8181,-0.4940,1.981
180.2730,0.8122,-0.6946,-0.2963,1.109
180.2850,0.4584,-0.4964,-0.2020,0.705
180.2970,0.3635,-0.5896,-0.1860,0.717
180.2980,0.7427,-0.3057,-0.1068,0.810
180.3100,1.5561,-0.1723,0.4866,1.640
180.3140,2.5300,-0.2250,1.1296,2.780
180.3230,3.3875,-0.4434,1.7339,3.831
180.3320,3.9559,-0.7829,2.0912,4.543
180.3400,4.2574,-0.8091,1.9955,4.771
180.3480,4.0566,-0.9528,2.0193,4.630
180.3590,3.8046,-0.8407,1.8694,4.322
180.3640,3.3418,-0.5718,1.5479,3.727
180.3740,2.7505,-0.2223,1.4160,3.102
180.3810,1.9527,0.0321,1.1542,2.269
180.3910,1.1253,0.3097,0.6420,1.332
180.3980,0.8564,0.1806,0.7375,1.145
180.4070,0.1070,0.4089,0.3198,0.530
180.4160,-0.6298,0.7008,0.0868,0.946
180.4300,-1.2147,0.9003,0.0359,1.512
180.4330,-1.7837,0.9299,0.0298,2.012
180.4430,-2.2563,0.9864,-0.1468,2.467
180.4610,-2.4591,0.9320,-0.2185,2.639
180.4620,-2.7605,0.8465,-0.2044,2.895
180.4810,-2.6918,0.7302,-0.0819,2.790
180.4830,-2.5849,0.6621,-0.0062,2.668
180.4840,-2.4618,0.6223,0.0641,2.540
180.4900,-2.3584,0.5923,0.2293,2.442
180.5010,-2.3542,0.5720,0.2752,2.438
180.5070,-2.2719,0.6595,0.2812,2.382
180.5180,-2.5805,0.6392,0.2670,2.672
180.5250,-2.6114,0.6285,0.2709,2.700
180.5330,-2.8144,0.6269,0.2921,2.898
180.5410,-3.0060,0.5948,0.2935,3.078
180.5500,-3.2304,0.6492,0.0595,3.295
180.5580,-3.3073,0.7109,-0.0559,3.383
180.5710,-2.9050,0.8377,-0.2290,3.032
180.5760,-3.1506,0.8709,-0.2448,3.278
180.5870,-3.0291,1.2209,-0.2221,3.273
180.6070,-3.3264,1.3772,-0.1824,3.605
180.6080,-3.4560,1.3789,-0.2054,3.727
180.6090,-3.7728,1.2849,-0.1928,3.990
180.6170,-4.1180,1.1140,0.0118,4.266
180.6250,-4.2959,1.1593,-0.0234,4.450
180.6330,-4.8137,0.8714,0.1543,4.894
180.6420,-5.4537,0.2699,0.3119,5.469
180.6500,-5.7746,-0.4466,0.7620,5.842
180.6580,-5.2482,-0.8476,0.6820,5.360
180.6670,-5.0468,-1.0134,0.6232,5.185
180.6770,-4.9482,-0.9277,0.5269,5.062
180.6830,-5.0509,-0.8851,0.4901,5.151
180.7080,-4.9219,-0.5736,0.2795,4.963
180.7090,-5.1659,-0.5236,-0.2210,5.197
180.7100,-4.7731,-0.2225,-0.5023,4.805
180.7170,-4.5106,-0.0812,-0.7030,4.566
180.7270,-4.5516,-0.1594,-0.6665,4.603
180.7340,-4.9133,-0.4183,-0.5884,4.966
180.7430,-4.9258,-0.4091,-0.6028,4.979
180.7500,-5.4556,-0.6780,-0.8441,5.562
180.7590,-5.8761,-0.6956,-0.9571,5.994
180.7670,-6.0305,-0.5209,-0.9998,6.135
180.7770,-6.0168,-0.2525,-1.0116,6.106
180.7840,-5.8708,0.0298,-1.2472,6.002
180.7940,-5.4982,0.1318,-1.2966,5.651
180.8010,-5.3480,0.1119,-1.2420,5.491
180.8100,-4.8318,0.1653,-1.1678,4.974
180.8260,-3.8115,0.2918,-2.0516,4.338
180.8300,-3.5316,-0.1763,-3.2969,4.835
180.8380,-2.8055,1.6068,-5.9079,6.735
180.8470,1.0380,6.9416,-4.8021,8.504
180.8520,1.1347,6.9106,-4.6872,8.427
180.8600,6.5542,10.4315,10.8400,16.410
180.8680,6.5721,10.4805,14.2384,18.862
180.8770,4.3179,7.8709,2.4605,9.309
180.8860,2.6181,4.8685,-5.4347,7.752
180.8930,0.5668,2.6888,-3.6473,4.567
180.9030,-2.7923,0.4641,0.0261,2.831
180.9100,-2.5906,0.4108,-0.0058,2.623
180.9190,-5.6548,-2.0443,0.4777,6.032
180.9270,-7.5948,-3.9324,-1.3902,8.665
180.9350,-7.9742,-3.9068,-3.3309,9.484
180.9440,-7.4418,-2.6032,-4.9964,9.334
180.9530,-7.5505,-0.8876,-6.0726,9.730
180.9620,-9.4144,1.3544,-5.7581,11.119
180.9720,-9.2299,1.3422,-5.6876,10.924
180.9800,-11.6116,3.1714,-4.3166,12.787
180.9930,-9.3084,3.0612,-1.5014,9.913
181.0130,-5.7923,1.3653,0.4426,5.968
181.0140,-2.7639,-0.1717,1.5465,3.172
181.0150,-0.3132,-0.9395,2.3046,2.508
181.0200,-0.2377,-0.9391,2.3109,2.506
181.0290,2.0265,-0.8779,2.1283,3.067
181.0370,4.0697,-0.3649,1.4427,4.333
181.0460,4.4520,-0.0085,0.7035,4.507
181.0530,3.6283,0.0732,-0.0558,3.629
181.0620,2.1826,-0.0022,-0.9551,2.382
181.0700,0.7000,-0.3514,-1.5630,1.748
181.0780,0.7844,-0.3480,-1.5487,1.770
181.0870,-0.4055,-0.8344,-1.5013,1.765
181.0950,-1.1413,-1.0460,-1.1256,1.914
181.1030,-1.7746,-1.0213,-0.8673,2.224
181.1150,-1.8553,-0.7602,-0.4311,2.051
181.1300,-1.0934,-0.4796,-0.2325,1.216
181.1310,0.0203,-0.2383,-0.3303,0.408
181.1380,0.1151,-0.2314,-0.3307,0.420
181.1450,1.2456,-0.3024,-0.1757,1.294
181.1530,2.3319,-0.2165,-0.1993,2.350
181.1620,2.7488,-0.0128,-0.3996,2.778
181.1710,2.5194,0.2109,-0.2473,2.540
181.1790,1.8610,0.1998,-0.0379,1.872
181.1870,0.9893,0.1105,-0.0678,0.998
181.1950,1.0806,0.1198,-0.0809,1.090
181.2050,0.4875,-0.0462,-0.4079,0.637
181.2120,0.4039,-0.2308,-0.7742,0.903
181.2210,0.3381,-0.3559,-0.8864,1.013
181.2290,0.5254,-0.3043,-0.5496,0.819
181.2380,0.6339,-0.2716,-0.7426,1.013
181.2460,0.7240,-0.2574,-0.7592,1.080
181.2580,0.8358,-0.0856,-0.7964,1.158
181.2700,0.8516,0.0867,-0.5432,1.014
181.2920,0.7898,0.1415,-0.3141,0.862
181.2940,0.9238,0.1578,-0.0673,0.940
181.2940,0.9007,0.0773,-0.0557,0.906
181.2970,0.7985,0.0175,-0.1216,0.808
181.3050,0.8908,0.0371,-0.1468,0.904
181.3130,0.8063,0.0185,-0.3084,0.864
181.3210,0.7604,0.1182,-0.4498,0.891
181.3300,0.5195,0.1210,-0.6298,0.825
181.3380,0.2022,0.2620,-0.6745,0.751
181.3470,0.1411,0.4034,-0.3313,0.541
181.3550,0.2377,0.2520,-0.1478,0.377
181.3630,0.3342,0.2778,-0.1827,0.471
181.3720,1.1147,0.6759,0.1913,1.318
181.3800,1.9789,0.9008,-0.5319,2.238
181.3880,2.8106,1.2082,-0.3326,3.077
181.4180,3.3706,1.3612,-0.7621,3.714
181.4190,3.4659,1.5376,-1.0930,3.946
181.4200,3.3495,1.9133,-1.1066,4.013
181.4230,3.4713,1.9587,-1.1410,4.146
181.4310,2.8939,2.3219,-0.6461,3.766
181.4390,2.6166,2.4935,-0.6416,3.671
181.4470,2.8699,2.3738,-0.3288,3.739
181.4560,3.4791,2.8455,0.0362,4.495
181.4640,4.3064,3.7121,0.3752,5.698
181.4720,4.4555,3.7816,0.3172,5.853
181.4820,5.4709,5.0321,0.2394,7.437
181.4920,6.4099,6.4043,-0.2066,9.063
181.4990,7.4487,7.9180,-1.2509,10.943
181.5070,8.5092,9.6325,-2.1655,13.034
181.5160,9.0656,10.8641,-2.6023,14.387
181.5240,8.7247,11.0239,-3.4371,14.473
181.5350,8.9018,11.1342,-3.4875,14.676
181.5400,6.7172,10.4129,-4.3564,13.135
181.5510,3.9279,9.3846,-5.2958,11.469
181.5570,1.5493,8.7126,-7.6761,11.715
181.5650,0.1874,8.0835,-6.7000,10.501
181.5730,-0.5986,7.1176,-4.3646,8.371
181.5820,-0.3878,6.1215,-5.8741,8.493
181.6030,-0.2589,6.2296,-6.0272,8.672
181.6050,1.8271,5.2487,-6.2628,8.373
181.6070,4.4189,4.4722,-3.5066,7.199
181.6160,7.0074,3.2935,-2.3722,8.098
181.6240,8.0815,1.3170,-0.7776,8.225
181.6330,7.0334,-0.5611,-0.0865,7.056
181.6400,6.7962,-1.4696,0.9578,7.019
181.6500,6.8567,-1.3776,0.9231,7.054
181.6580,6.4269,-1.6655,0.9924,6.713
181.6660,5.2024,-1.6575,0.3321,5.470
181.6750,3.8499,-1.6272,0.0648,4.180
181.6890,2.7592,-1.7126,0.1200,3.250
181.6920,2.1631,-1.8759,-0.1941,2.870
181.7000,2.1340,-1.9067,-0.1151,2.864
181.7120,1.8546,-1.9935,-0.3103,2.740
181.7160,1.8939,-2.1736,0.0187,2.883
181.7240,2.0747,-2.2703,0.4585,3.110
181.7340,2.3203,-2.3788,0.8532,3.431
181.7440,2.6068,-2.3069,0.9903,3.619
181.7500,3.0765,-2.2244,1.3027,4.014
181.7590,2.9459,-2.3456,1.3618,4.004
181.7660,3.2347,-2.0814,1.8132,4.252
181.7760,3.3548,-1.7836,2.1111,4.347
181.7830,3.3628,-1.4729,2.2227,4.292
181.7930,3.2232,-1.2037,2.2649,4.119
181.8000,2.8766,-1.0538,2.1790,3.759
181.8100,2.5773,-1.0810,1.8279,3.340
181.8170,2.3644,-1.2249,1.9364,3.292
181.8280,2.0596,-1.2506,1.7781,2.995
181.8370,1.7224,-1.2550,1.7607,2.764
181.8440,1.4701,-1.0607,1.5702,2.398
181.8510,1.2653,-0.7446,1.1857,1.887
181.8590,1.0897,-0.3642,0.7822,1.390
181.8710,0.9598,0.0011,0.6128,1.139
181.8750,0.6672,-0.1157,0.7280,0.994
181.8840,0.4263,0.1277,0.6773,0.810
181.8920,0.0433,0.3398,0.5974,0.689
181.9000,-0.4606,0.4819,0.6254,0.914
181.9090,-0.9478,0.4560,0.7602,1.298
181.9190,-1.3993,0.3402,0.6671,1.587
181.9260,-1.7154,0.2726,0.7206,1.880
181.9350,-2.0331,0.2927,0.2775,2.073
181.9420,-2.2177,0.4000,0.0631,2.254
181.9670,-2.0906,0.4963,0.1722,2.156
181.9680,-2.0652,0.6206,0.3296,2.181
181.9690,-2.0972,0.5587,0.3035,2.191
181.9780,-2.1676,0.4091,0.4289,2.247
181.9880,-2.4898,0.4066,0.4317,2.559
181.9930,-2.5720,0.3745,0.5665,2.660
182.0020,-2.4545,0.6257,0.5600,2.594
182.0090,-2.1724,1.1789,0.2378,2.483
182.0180,-1.7424,1.9346,-0.2223,2.613
182.0280,-1.7993,2.2633,-0.4674,2.929
182.0360,-2.3970,2.1235,-0.2068,3.209
182.0430,-2.6262,2.1615,-0.2297,3.409
182.0520,-3.5357,1.4192,0.1675,3.814
182.0610,-3.6848,0.9184,0.1831,3.802
182.0680,-3.9425,0.6567,-0.0191,3.997
182.0770,-5.0439,0.2790,0.0951,5.053
182.0860,-5.6758,0.1169,0.1908,5.680
182.1100,-5.6130,0.4264,-0.2018,5.633
182.1120,-5.7777,0.4827,-0.2372,5.803
182.1130,-5.4221,0.6366,-0.1129,5.460
182.1230,-4.8325,0.6289,0.0313,4.873
182.1270,-4.7169,0.4216,0.0607,4.736
182.1430,-4.4309,0.1724,-0.0809,4.435
182.1480,-4.0122,0.0754,-0.0424,4.013
182.1520,-4.0835,0.1084,-0.0591,4.085
182.1610,-3.8732,0.1889,-0.0519,3.878
182.1690,-4.0733,0.3388,-0.2557,4.095
182.1770,-4.3501,0.4007,-0.4381,4.390
182.1860,-4.4496,0.2376,-1.1685,4.607
182.1940,-3.7872,0.3802,-1.5229,4.100
182.2030,-3.5027,-0.1185,-1.8509,3.963
182.2110,-3.3938,-0.1618,-1.8347,3.861
182.2260,-4.4213,-0.4007,-4.5978,6.391
182.2280,-6.0555,3.1853,-9.9401,12.067
182.2400,-5.4822,10.2769,-2.9620,12.018
182.2450,0.1533,15.4585,17.9913,23.721
182.2540,1.4540,10.7008,12.8101,16.755
182.2610,-0.2059,5.2538,-1.5081,5.470
182.2710,0.0132,5.1996,-1.4140,5.388
182.2780,-0.6047,1.8895,-5.3737,5.728
182.2880,-1.4912,-1.4029,-1.9174,2.805
182.2980,-3.6745,-4.4014,-0.1950,5.737
182.3040,-5.8784,-6.2507,-1.0097,8.640
182.3120,-6.9907,-6.5001,-1.7935,9.713
182.3200,-6.8403,-5.3312,-3.3333,9.291
182.3300,-6.7738,-5.3320,-3.3144,9.236
182.3380,-5.9109,-1.6472,-5.9300,8.533
182.3530,-7.8555,2.6644,-9.8620,12.887
182.3570,-11.2827,5.8932,-8.1458,15.112
182.3630,-13.9050,5.1141,-1.4232,14.884
182.3780,-11.7596,1.9580,2.0287,12.093
182.3830,-11.6045,1.9377,1.9629,11.928
182.3870,-8.6075,-0.4022,1.0288,8.678
182.4010,-5.8196,-1.2992,0.8560,6.024
182.4040,-3.2539,-1.1352,2.5296,4.275
182.4140,-1.3615,-0.5799,2.8466,3.208
182.4220,0.5802,0.1328,1.5448,1.656
182.4300,2.5091,0.5934,-0.0716,2.579
182.4380,2.5691,0.6053,-0.0319,2.640
182.4460,4.5133,0.7930,-0.8385,4.659
182.4550,5.3494,0.4506,-0.8915,5.442
182.4630,4.2020,-0.0873,-0.8558,4.289
182.4710,2.4998,-0.3485,-0.7627,2.637
182.4830,0.9196,-0.4121,-0.8654,1.328
182.4940,-0.3418,-0.5332,-1.0478,1.224
182.5050,-0.2277,-0.5160,-1.0365,1.180
182.5060,-0.9911,-0.5370,-1.2440,1.679
182.5130,-0.7928,-0.6560,-0.5383,1.161
182.5220,0.5767,-0.8144,0.4144,1.081
182.5290,2.3282,-0.6983,-0.0246,2.431
182.5400,2.8973,-0.2872,-0.6339,2.980
182.5470,2.9968,-0.2655,-0.6296,3.074
182.5560,3.1121,0.2076,-0.3088,3.134
182.5630,1.9114,-0.2209,-1.0861,2.210
182.5720,1.9018,0.0749,-0.8658,2.091
182.5800,1.4598,0.5468,-0.5476,1.652
182.5890,0.0482,0.2382,-0.2286,0.334
182.5970,-0.7488,-0.0094,-0.3435,0.824
182.6280,-0.6473,0.0169,-0.3438,0.733
182.6300,-0.9201,-0.0741,-0.1891,0.942
182.6310,-0.8809,-0.0280,-0.1155,0.889
182.6320,-0.7249,0.1362,-0.2189,0.769
182.6390,-0.3351,0.3986,-0.3619,0.634
182.6490,0.0737,0.6418,-0.3879,0.754
182.6560,0.5016,0.7483,-0.4349,1.000
182.6640,0.5959,0.7772,-0.4435,1.075
182.6720,1.0233,0.9834,-0.3149,1.454
182.6830,1.3520,1.0535,-0.3232,1.744
182.6890,1.4665,1.1840,-0.0374,1.885
182.6980,1.4068,1.1206,0.0518,1.799
182.7060,1.2508,1.0001,-0.1340,1.607
182.7140,1.2339,0.9990,-0.2427,1.606
182.7230,1.3369,1.0389,-0.2552,1.712
182.7310,1.5406,1.3745,-0.0742,2.066
182.7400,1.8253,1.5943,0.0451,2.424
182.7620,2.1909,1.7183,-0.3076,2.801
182.7690,2.6944,1.9618,-0.4654,3.365
182.7710,2.9652,2.1685,-0.5268,3.711
182.7730,3.0825,2.2217,-0.5508,3.839
182.7890,3.1819,2.5319,-0.3610,4.082
182.7920,3.0288,2.8641,-0.1536,4.171
182.7990,2.8190,3.1200,0.2466,4.212
182.8080,2.7514,3.2618,0.7186,4.327
182.8150,2.6865,3.1715,1.0085,4.277
182.8250,2.8975,2.9671,0.5893,4.189
182.8320,3.0305,3.0397,0.5384,4.326
182.8440,3.5358,2.8989,0.4414,4.594
182.8490,3.8253,3.0147,-0.1141,4.872
182.8580,4.0735,3.6991,-0.8106,5.562
182.8680,4.2580,4.9885,-1.9786,6.851
182.8780,4.8865,7.0370,-3.3032,9.182
182.8830,6.2665,9.5854,-4.3102,12.236
182.9160,6.3609,9.6371,-4.3748,12.348
182.9210,8.2531,11.8214,-5.2854,15.356
182.9240,9.7227,12.5648,-5.1797,16.710
182.9280,9.0335,11.7772,-3.8653,15.338
182.9300,6.8546,10.1674,-4.4751,13.053
182.9420,4.5368,8.3845,-5.6227,11.068
182.9450,3.3975,6.9447,-3.9242,8.670
182.9520,3.5368,7.0626,-4.0054,8.856
182.9580,4.0277,5.1278,-4.1787,7.745
182.9760,5.3840,3.1467,-4.1656,7.499
182.9780,6.2533,1.6267,-2.3667,6.881
182.9850,5.8206,0.2602,-0.1381,5.828
182.9920,4.7184,-1.5935,0.2415,4.986
183.0000,4.7800,-1.5145,0.1093,5.015
183.0080,5.3156,-2.3139,0.8614,5.861
183.0220,6.5585,-2.1923,0.9485,6.980
183.0290,7.4629,-1.3723,-0.3808,7.598
183.0430,7.1115,-0.4993,-0.5164,7.148
183.0440,6.1224,-0.1109,-0.1456,6.125
183.0510,5.1450,-0.1246,-0.2942,5.155
183.0590,5.0609,-0.2054,-0.2722,5.072
183.0680,4.3972,-0.3361,-0.0643,4.410
183.0760,3.8735,-0.5216,0.4640,3.936
183.0840,3.6687,-0.4635,0.7435,3.772
183.0920,3.5487,-0.1986,1.2084,3.754
183.1010,3.2974,0.1756,1.0944,3.479
183.1090,3.2516,0.8006,0.9684,3.486
183.1180,3.0757,0.6573,1.0456,3.314
183.1250,2.8901,1.2568,1.1205,3.345
183.1340,2.6174,1.4248,1.1920,3.210
183.1450,2.2952,1.3376,1.3793,2.993
183.1510,1.9844,1.0568,1.6231,2.773
183.1610,1.6428,0.7577,1.4966,2.348
183.1680,1.4489,0.5405,1.1367,1.919
183.1830,1.2052,0.4051,1.2121,1.757
183.1860,1.0326,0.4712,0.9950,1.509
183.1960,0.8930,0.6412,0.6792,1.292
183.2010,0.6108,0.8369,0.4601,1.134
183.2100,0.3248,1.0392,0.1575,1.100
183.2180,0.0171,1.0528,-0.0142,1.053
183.2260,-0.2546,0.9556,0.0407,0.990
183.2350,-0.8009,0.8462,-0.0328,1.166
183.2440,-1.3485,0.7629,-0.0393,1.550
183.2520,-1.7406,0.6469,-0.2528,1.874
183.2600,-2.2119,0.5966,-0.5143,2.348
183.2680,-2.7835,0.5136,-0.6865,2.913
183.2770,-3.1586,0.3595,-0.7106,3.257
183.2850,-3.4359,0.3105,-0.7228,3.525
183.2940,-3.5979,0.1123,-0.6030,3.650
183.3260,-3.6268,-0.1368,-0.6432,3.686
183.3290,-3.3639,-0.2597,-0.6843,3.443
183.3300,-3.1839,-0.1197,-0.8045,3.286
183.3320,-3.0218,0.0678,-1.0231,3.191
183.3350,-3.2466,0.2635,-1.1628,3.459
183.3450,-3.5233,0.2707,-1.1865,3.728
183.3530,-4.5200,0.3047,-1.1943,4.685
183.3610,-5.0069,0.3852,-1.1858,5.160
183.3690,-5.0621,0.5320,-1.0608,5.199
183.3770,-4.6420,0.7834,-0.8773,4.789
183.3870,-3.5675,1.2555,-0.8895,3.885
183.3940,-2.4823,1.8486,-1.0973,3.284
183.4030,-2.7044,1.8929,-1.1292,3.489
183.4110,-2.6962,2.0701,-0.5199,3.439
183.4200,-3.5694,1.4618,-0.0388,3.857
183.4290,-4.8465,0.3468,-0.1159,4.860
183.4400,-5.0634,-0.1369,-0.3354,5.076
183.4450,-4.9450,-0.1081,-0.2236,4.951
183.4660,-5.0881,-0.0610,-0.2891,5.097
183.4670,-4.8254,0.0621,-0.1207,4.827
183.4700,-4.4519,0.1823,-0.2288,4.461
183.4800,-4.0446,0.2398,-0.6308,4.100
183.4870,-4.5162,-0.1601,-1.2474,4.688
183.4950,-5.8431,-0.9788,-1.2531,6.056
183.5030,-5.8891,-1.1122,-1.4890,6.175
183.5120,-5.9274,-1.0908,-1.5386,6.220
183.5200,-6.2847,-1.2504,-1.9241,6.690
183.5290,-6.6267,-1.1804,-2.4866,7.176
183.5370,-6.7547,-0.8237,-2.8510,7.378
183.5460,-6.8112,-0.5704,-3.0212,7.473
183.5540,-6.6196,-0.7337,-2.7080,7.190
183.5630,-6.5907,-1.1756,-2.4416,7.126
183.5710,-6.5258,-1.1917,-2.3793,7.048
183.5790,-6.4970,-1.8612,-2.3043,7.140
183.5980,-6.3527,-1.8882,-2.0801,6.946
183.6010,-5.2143,-0.7634,-2.6880,5.916
183.6120,-5.3122,0.7472,-3.9499,6.662
183.6130,-4.1805,4.6216,-5.4347,8.269
183.6220,0.6748,8.0263,2.5190,8.439
183.6290,0.7769,7.9835,2.5701,8.423
183.6380,5.0360,9.2480,12.2716,16.170
183.6460,5.9420,8.6931,7.4197,12.881
183.6550,4.9242,7.2379,-1.0151,8.813
183.6630,3.1387,5.7198,-4.9789,8.207
183.6720,0.7906,4.3341,-1.3828,4.618
183.6790,1.0449,4.2732,-1.3556,4.603
183.6880,-2.4494,2.1160,1.2056,3.454
183.6970,-7.6033,-1.2409,-0.1910,7.706
183.7050,-12.0379,-4.0629,-2.2196,12.897
183.7130,-12.8370,-4.5336,-3.3581,14.022
183.7250,-10.8256,-2.7834,-3.9387,11.851
183.7390,-9.4266,-0.2500,-4.1227,10.292
183.7410,-9.3042,-0.2459,-4.0487,10.150
183.7580,-8.5984,2.0287,-4.1360,9.755
183.7600,-7.2973,3.1442,-3.8625,8.835
183.7640,-4.8880,2.6518,-3.3116,6.472
183.7830,-2.1879,1.4337,-2.3517,3.518
183.7840,-0.2022,0.3139,-0.7428,0.831
183.7880,0.7037,-0.4134,0.9713,1.269
183.7980,0.7700,-0.4155,0.9543,1.295
183.8050,1.2682,-0.8077,1.8619,2.393
183.8150,1.6662,-0.7857,2.2499,2.908
183.8220,1.6520,-0.6442,1.6676,2.434
183.8310,1.4819,-0.4225,0.3918,1.590
183.8390,1.4904,-0.1598,-0.4611,1.568
183.8480,1.1694,-0.3078,-0.7830,1.441
183.8560,1.2433,-0.2996,-0.7599,1.488
183.8680,0.8679,-0.5272,-0.8621,1.332
183.8720,0.3201,-0.7538,-1.2202,1.470
183.8880,0.1072,-0.7637,-1.8703,2.023
183.8900,0.2470,-0.8120,-2.0290,2.199
183.8990,0.6030,-0.5862,-1.1354,1.413
183.9070,0.6853,-0.5770,-1.1324,1.444
183.9150,1.1592,-0.3919,-0.3902,1.284
183.9240,1.6914,-0.4216,-0.5297,1.822
183.9310,2.1829,-0.4302,-0.4108,2.262
183.9410,2.5766,-0.2812,-0.2129,2.601
183.9490,2.8521,-0.0730,-0.2695,2.866
183.9570,2.7760,0.0577,-0.1676,2.782
183.9650,2.8580,0.0719,-0.1628,2.864
183.9740,2.3950,0.1657,-0.2168,2.410
183.9820,1.5830,0.1625,-0.3692,1.634
183.9900,0.8925,0.0430,-0.2677,0.933
184.0000,0.4002,-0.0168,-0.0513,0.404
184.0210,-0.0316,-0.1344,-0.0721,0.156
184.0290,0.0073,-0.1531,-0.2895,0.328
184.0310,0.1042,-0.1316,-0.2906,0.336
184.0370,0.2605,-0.1089,-0.3308,0.435
184.0400,0.3004,-0.1437,-0.4501,0.560
184.0510,0.3216,-0.1968,-0.6869,0.784
184.0570,0.3420,0.0056,-0.6299,0.717
184.0670,0.2052,0.1885,-0.6140,0.674
184.0740,0.3044,0.2153,-0.3071,0.483
184.0840,0.3838,0.3212,-0.3935,0.637
184.0910,0.5613,0.3886,-0.1877,0.708
184.1010,0.6988,0.4959,-0.1004,0.863
184.1070,0.8561,0.4676,-0.3451,1.035
184.1160,0.9344,0.4600,-0.6275,1.216
184.1240,0.8167,0.3949,-0.6748,1.131
184.1330,0.9161,0.4292,-0.6844,1.221
184.1410,0.7811,0.6016,-0.4798,1.096
184.1520,0.5881,0.7359,-0.3349,1.000
184.1580,0.8264,0.9690,-0.2308,1.294
184.1830,1.3983,1.4184,0.1261,1.996
184.1840,1.9136,1.6737,0.0888,2.544
184.1850,2.4712,1.7747,-0.5574,3.093
184.1930,2.5790,1.8190,-0.5762,3.208
184.2010,3.0404,1.9439,-1.3782,3.863
184.2090,3.2894,2.2673,-1.1245,4.150
184.2170,2.8753,2.4950,-0.4626,3.835
184.2270,2.3082,2.5884,-0.0580,3.469
184.2340,2.0347,2.5263,0.1292,3.246
184.2430,1.7423,2.5639,0.3323,3.118
184.2510,1.8609,2.6217,0.2945,3.228
184.2600,2.0177,2.5431,0.5636,3.295
184.2670,2.2134,2.5050,0.4347,3.371
184.2750,2.4884,2.6654,-0.0121,3.646
184.2840,2.9388,3.3946,-0.4439,4.512
184.2940,3.5627,4.6707,-1.5858,6.085
184.3020,3.6759,4.7321,-1.6550,6.216
184.3250,4.6285,6.5948,-2.6485,8.481
184.3260,5.9267,8.7458,-3.0379,10.993
184.3280,7.8294,10.3465,-3.6287,13.473
184.3350,9.7932,10.7181,-4.3976,15.170
184.3430,10.5569,10.1267,-3.6429,15.075
184.3530,8.8588,9.4429,-3.2330,13.345
184.3600,9.0198,9.5629,-3.3327,13.561
184.3710,5.6785,9.0861,-4.2361,11.522
184.3760,3.9444,7.8707,-5.5739,10.420
184.3860,3.8077,6.3216,-4.0003,8.394
184.3930,3.8090,4.0978,-3.3678,6.530
184.4030,3.6941,2.1402,-3.0915,5.271
184.4100,3.2490,1.5639,-2.8639,4.605
184.4190,3.3391,1.6636,-2.9381,4.749
184.4260,2.6984,0.8788,-3.7522,4.705
184.4390,3.2419,-0.0898,-1.4649,3.559
184.4440,4.4572,-1.4812,0.8760,4.778
184.4630,5.7471,-2.3471,0.6150,6.238
184.4660,6.2681,-2.0437,-0.2353,6.597
184.4690,5.7169,-1.7198,0.0500,5.970
184.4770,5.6618,-1.7653,0.0437,5.931
184.5140,4.8691,-1.5128,0.5413,5.127
184.5160,4.3460,-1.1679,0.2221,4.506
184.5300,4.4175,-1.1235,0.6401,4.603
184.5350,4.4963,-0.9670,0.7020,4.652
184.5460,4.4055,-0.7765,0.5389,4.506
184.5520,4.1666,-0.5297,0.4589,4.225
184.5620,3.6429,-0.3825,0.4185,3.687
184.5700,3.0900,-0.1574,0.5513,3.143
184.5820,2.5029,0.0641,0.8356,2.639
184.5880,2.2797,-0.0845,0.9146,2.458
184.6070,1.7508,0.0420,1.1647,2.103
184.6090,1.5049,0.1900,1.2342,1.956
184.6110,1.4843,0.3612,1.2418,1.969
184.6190,1.5862,0.4757,1.3271,2.122
184.6280,1.6798,0.5377,1.3902,2.246
184.6490,1.7270,0.5683,1.4343,2.316
184.6500,1.4360,0.4510,1.4989,2.124
184.6550,1.4920,0.4015,1.3500,2.052
184.6610,1.3680,0.4991,1.3017,1.953
184.6740,1.0057,0.6844,1.2525,1.746
184.6780,0.6432,0.9970,0.9858,1.543
184.6880,0.2228,1.3777,0.6370,1.534
184.6950,-0.3547,1.8256,0.2836,1.881
184.7040,-0.6519,1.7735,0.3344,1.919
184.7120,-1.0843,2.1602,0.0612,2.418
184.7370,-1.6319,2.2603,-0.0847,2.789
184.7480,-2.0014,2.2699,-0.2594,3.037
184.7490,-2.4263,1.9933,-0.2476,3.150
184.7500,-2.7494,1.6854,-0.2054,3.231
184.7540,-3.0312,1.6788,-0.2102,3.471
184.7650,-3.4478,1.6405,-0.3174,3.831
184.7720,-3.6247,1.7858,-0.1723,4.044
184.7790,-3.1175,2.2319,-0.3048,3.846
184.7880,-2.5944,2.4676,-0.7120,3.651
184.7960,-2.7398,2.6098,-0.7640,3.860
184.8050,-2.6928,2.6376,-0.6411,3.824
184.8160,-2.9028,2.6671,-0.6595,3.997
184.8210,-3.8601,2.2084,-0.3871,4.464
184.8320,-5.2753,1.1843,-0.0409,5.407
184.8380,-6.1391,0.1654,0.3591,6.152
184.8480,-5.8874,-0.2407,0.5408,5.917
184.8550,-5.3370,-0.1542,0.4687,5.360
184.8790,-5.1272,-0.1068,0.4978,5.152
184.8810,-5.2734,-0.0613,0.4695,5.295
184.8820,-4.7627,0.0221,0.6736,4.810
184.8880,-4.2789,0.0831,0.9138,4.376
184.8960,-4.2104,-0.1145,1.0739,4.347
184.9050,-4.5156,-0.6302,1.1922,4.713
184.9140,-4.4460,-0.7804,1.0533,4.635
184.9230,-4.2054,-0.8962,0.7770,4.369
184.9300,-4.2436,-0.8802,0.7360,4.396
184.9380,-3.9929,-0.9287,0.4581,4.125
184.9470,-3.9039,-1.0418,0.3144,4.053
184.9550,-4.1275,-1.0845,0.2657,4.276
184.9630,-4.4330,-1.1136,0.0582,4.571
184.9780,-4.7234,-0.9717,-0.0894,4.823
184.9840,-4.6665,-0.9914,-0.1357,4.773
185.0040,-4.9298,-0.8974,-0.4118,5.028
185.0050,-5.2941,-0.8083,-0.8163,5.417
185.0070,-5.5882,-0.7804,-1.1913,5.767
185.0140,-5.6963,-0.9891,-1.4607,5.963
185.0250,-5.7170,-1.1988,-1.4105,6.009
185.0310,-5.0083,-1.2122,-3.1169,6.022
185.0390,-4.8845,-1.2436,-3.0963,5.915
185.0480,-4.2115,0.1382,-6.5545,7.792
185.0560,-2.3739,4.2253,-8.0682,9.412
185.0640,0.7023,7.9349,-1.5406,8.113
185.0740,3.4159,10.1263,7.2762,12.929
185.0830,3.8204,8.7235,7.3496,12.030
185.0930,1.1743,5.8704,0.2017,5.990
185.1020,1.3701,5.8233,0.2834,5.989
185.1100,-1.8140,4.1932,-5.7586,7.351
185.1230,-4.8335,2.4725,-4.1774,6.850
185.1280,-7.4960,-0.4171,-1.0383,7.579
185.1480,-8.4992,-2.2992,0.6232,8.827
185.1510,-7.8353,-3.1127,1.0754,8.499
185.1560,-6.6560,-2.8995,0.2601,7.265
185.1600,-6.5474,-2.8971,0.2943,7.166
185.1670,-5.4019,-1.4034,-1.1744,5.703
185.1770,-5.3430,0.6188,-2.3855,5.884
185.1820,-5.3169,2.1691,-3.5328,6.742
185.1910,-4.2786,2.4445,-4.3959,6.604
185.1990,-2.8592,1.7404,-3.8439,5.097
185.2070,-2.7599,1.7405,-3.8041,5.012
185.2160,-1.9571,0.5640,-2.0638,2.900
185.2240,-1.5105,-0.4937,-0.1246,1.594
185.2330,-0.8345,-0.9224,1.0453,1.625
185.2410,-0.0277,-0.8593,1.6716,1.880
185.2510,0.8722,-0.4421,1.5228,1.810
185.2590,1.5168,-0.1215,0.9727,1.806
185.2660,1.5968,-0.1129,0.9979,1.886
185.2950,1.8366,-0.0052,0.7702,1.992
185.2980,1.4348,-0.1709,0.7563,1.631
185.2990,0.8208,-0.2767,0.7213,1.127
185.3000,0.4443,-0.2636,0.1194,0.530
185.3090,0.3442,-0.2688,-0.2453,0.501
185.3160,0.3825,-0.3122,-0.8650,0.996
185.3250,0.4794,-0.2964,-0.8407,1.012
185.3330,0.6938,-0.4365,-1.5823,1.782
185.3410,1.0448,-0.6147,-1.8741,2.232
185.3500,1.4149,-0.6358,-1.6216,2.244
185.3580,1.6669,-0.5002,-1.1798,2.103
185.3670,1.6820,-0.3450,-0.7020,1.855
185.3760,1.7748,-0.3266,-0.6962,1.934
185.3830,1.6704,-0.2098,-0.4567,1.744
185.3920,1.5833,-0.0925,-0.1181,1.590
185.4000,1.5737,0.0254,0.1819,1.584
185.4150,1.4090,0.0466,-0.0856,1.412
185.4170,1.1090,0.0107,-0.4873,1.211
185.4380,0.7717,0.0354,-0.6901,1.036
185.4390,0.8645,0.0607,-0.6768,1.100
185.4420,0.7206,-0.0116,-0.7827,1.064
185.4520,0.4990,-0.0636,-0.9492,1.074
185.4590,0.2581,-0.1148,-0.9994,1.039
185.4680,-0.0603,0.0107,-0.5047,0.508
185.4830,-0.3971,0.0771,-0.2322,0.466
185.4840,-0.4005,0.1045,-0.1990,0.459
185.4930,-0.3079,0.1323,-0.2050,0.393
185.5010,0.1546,0.0822,-0.4453,0.479
185.5090,0.5767,0.0722,-0.7831,0.975
185.5170,0.8418,0.1219,-0.7880,1.159
185.5260,0.8332,0.2510,-0.7348,1.139
185.5340,0.6097,0.4002,-0.7811,1.069
185.5420,0.4850,0.5303,-0.7509,1.039
185.5520,0.5758,0.5628,-0.7627,1.109
185.5630,0.5681,0.6540,-0.5628,1.033
185.5760,0.7755,0.9219,-0.4234,1.277
185.5790,1.0432,1.0737,-0.8132,1.704
185.5850,1.4096,1.1485,-1.1245,2.138
185.5950,1.8740,1.5963,-1.3774,2.821
185.6010,1.9680,1.6343,-1.3961,2.914
185.6100,2.3772,2.0462,-1.4554,3.458
185.6180,2.4942,2.2245,-1.3787,3.615
185.6280,2.6342,2.1705,-1.3240,3.661
185.6350,2.9132,2.1775,-0.5285,3.675
185.6440,3.2553,2.5597,0.3970,4.160
185.6510,3.4236,2.8654,0.9435,4.563
185.6600,3.5352,2.9192,0.9005,4.672
185.6680,3.7279,3.2510,1.0931,5.066
185.6790,3.8445,3.5860,0.9925,5.350
185.6930,3.8088,3.9060,0.6967,5.500
185.6950,3.7172,4.0338,0.3022,5.494
185.7020,3.3922,4.2235,-0.0342,5.417
185.7100,3.3421,4.7679,-0.8218,5.880
185.7200,3.4671,4.8433,-0.8665,6.019
185.7270,3.9003,5.7591,-1.6203,7.142
185.7350,4.6213,6.9455,-2.4372,8.691
185.7450,5.8247,8.2643,-3.2968,10.635
185.7540,7.0216,9.3833,-3.8670,12.341
185.7610,8.5090,9.5420,-4.7967,13.655
185.7700,9.0631,9.1812,-4.7558,13.750
185.7780,9.1772,9.2634,-4.8455,13.911
185.7860,8.5782,8.6738,-4.2010,12.902
185.7950,6.6761,8.5085,-4.6900,11.788
185.8040,4.8217,7.9043,-5.2091,10.624
185.8110,4.3964,6.7570,-4.0366,9.015
185.8220,4.7044,5.1960,-3.9635,8.052
185.8290,4.8232,5.3146,-4.0483,8.240
185.8380,5.4781,3.7624,-4.7519,8.170
185.8450,5.8453,2.8308,-4.2517,7.763
185.8540,5.9048,2.6925,-3.6753,7.458
185.8620,5.6085,1.5753,-1.1371,5.936
185.8710,5.0929,0.1066,-0.1908,5.098
185.8800,5.2686,-0.9627,0.9663,5.442
185.8870,5.3011,-0.9047,0.9083,5.454
185.8950,5.1957,-1.5579,0.5448,5.452
185.9040,4.6262,-1.5045,-0.4912,4.889
185.9120,4.0973,-1.2419,-0.5203,4.313
185.9210,3.3585,-0.9403,-0.4389,3.515
185.9300,2.9593,-0.8914,-0.7419,3.178
185.9370,2.8403,-0.8784,-0.9769,3.129
185.9470,2.7659,-0.9589,-0.9111,3.066
185.9540,2.8295,-1.0193,-0.5888,3.065
185.9630,3.0935,-0.9947,-0.0712,3.250
185.9710,3.4403,-0.8837,0.4082,3.575
185.9920,3.7516,-0.6465,0.4413,3.832
185.9940,3.9116,-0.2801,0.4027,3.942
185.9960,3.8415,0.0788,0.3685,3.860
186.0040,3.6613,-0.0755,0.4513,3.690
186.0130,3.3728,0.1018,0.5309,3.416
186.0220,3.0165,0.1615,0.6456,3.089
186.0300,2.5117,0.0635,0.8159,2.642
186.0380,2.1517,-0.0543,1.0628,2.400
186.0470,1.7223,-0.1508,0.9167,1.957
186.0550,1.4771,-0.3036,0.9887,1.803
186.0630,1.4161,-0.1984,0.6726,1.580
186.0740,1.5757,0.0663,0.6731,1.715
186.0800,1.8592,0.3744,0.7531,2.041
186.0890,2.0136,0.5907,0.7351,2.223
186.0970,1.8502,0.7386,0.6389,2.092
186.1050,1.5828,0.7977,0.5224,1.848
186.1130,1.2724,0.6905,0.5985,1.567
186.1240,0.6272,0.7698,0.5519,1.136
186.1380,0.0358,0.7011,0.3607,0.789
186.1390,-0.4957,0.5252,0.4745,0.864
186.1580,-0.9701,0.4761,0.5591,1.217
186.1590,-1.4442,0.5149,0.2233,1.549
186.1640,-1.7391,0.6418,-0.2747,1.874
186.1720,-2.0516,0.6018,-0.2504,2.153
186.1820,-2.5751,0.6493,-0.2335,2.666
186.1890,-2.9040,0.6856,-0.1653,2.988
186.1970,-2.9596,0.5543,-0.0841,3.012
186.2070,-2.8214,0.6087,0.0123,2.886
186.2160,-2.8588,0.7311,-0.0321,2.951
186.2220,-3.1714,0.7453,0.0176,3.258
186.2320,-3.2272,1.0427,0.0048,3.392
186.2390,-2.9824,1.3871,-0.2666,3.300
186.2480,-2.2677,2.3043,-0.8346,3.339
186.2560,-2.0367,3.5554,-1.5598,4.384
186.2680,-4.0793,3.3350,-1.2875,5.424
186.2760,-6.7386,2.1338,-0.6364,7.097
186.2840,-6.9265,2.1697,-0.6874,7.291
186.2980,-8.8689,0.7250,-0.6273,8.921
186.3000,-8.9724,-0.0836,-0.8598,9.014
186.3070,-8.0881,-0.2023,-0.6169,8.114
186.3180,-6.8391,0.1690,-0.3323,6.849
186.3230,-5.7317,0.6743,-0.5013,5.793
186.3320,-5.0512,0.6630,-0.6746,5.139
186.3400,-5.1746,0.7047,-0.7366,5.274
186.3480,-4.6875,0.4450,-0.4916,4.734
186.3600,-4.8211,-0.0388,-0.5809,4.856
186.3650,-5.2390,-0.4536,-0.9396,5.342
186.3740,-5.6574,-0.8232,-0.9753,5.800
186.3820,-6.0860,-1.1045,-1.1751,6.296
186.4150,-6.2713,-1.3757,-1.4804,6.589
186.4180,-6.1952,-1.4009,-1.4982,6.526
186.4190,-6.5258,-1.8644,-1.7193,7.001
186.4220,-6.8452,-2.4342,-1.2632,7.374
186.4240,-7.1435,-2.6551,-1.2691,7.726
186.4330,-6.8967,-1.7030,-3.3364,7.848
186.4420,-5.6974,1.7940,-8.2414,10.178
186.4530,-5.5224,1.7518,-8.1152,9.971
186.4580,-1.7128,8.0048,-5.8703,10.073
186.4650,3.0261,12.5985,5.9937,14.276
186.4740,5.7343,12.5708,10.0046,17.059
186.4840,4.0347,8.5297,2.8447,9.855
186.4910,0.6474,4.7157,-4.2323,6.369
186.5000,-2.3036,2.1051,-4.3101,5.321
186.5080,-2.0248,2.0625,-4.2430,5.134
186.5170,-4.8108,0.0220,-2.1191,5.257
186.5250,-8.2750,-1.8702,-0.7920,8.521
186.5380,-11.7047,-3.5701,-0.4760,12.246
186.5410,-12.5157,-4.1571,-0.5312,13.199
186.5560,-10.8892,-3.2466,-1.4250,11.452
186.5580,-9.1624,-1.6285,-2.4791,9.631
186.5760,-9.0237,-1.6150,-2.4056,9.477
186.5770,-7.9013,0.3590,-3.4614,8.634
186.5860,-7.1594,2.1154,-4.4200,8.676
186.5920,-5.7852,2.9485,-5.3253,8.398
186.6000,-3.3140,2.5049,-4.4273,6.071
186.6080,-0.9567,1.2725,-1.1991,1.993
186.6170,0.1624,0.1152,1.7560,1.767
186.6250,0.2461,0.1141,1.7199,1.741
186.6340,0.5477,-0.4524,2.8057,2.894
186.6420,0.7875,-0.5626,2.7369,2.903
186.6510,1.3365,-0.3353,2.2202,2.613
186.6600,2.0004,-0.1061,1.0483,2.261
186.6680,2.4101,-0.0514,-0.3690,2.439
186.6780,2.4897,-0.0342,-0.3322,2.512
186.6850,2.3201,-0.2324,-0.9692,2.525
186.6930,1.9202,-0.5096,-0.1102,1.990
186.7010,1.4438,-1.0016,0.3108,1.785
186.7100,1.2447,-1.0799,-0.4999,1.722
186.7180,1.1836,-0.9998,-1.0915,1.895
186.7260,1.1648,-0.8011,-0.8219,1.635
186.7350,1.2656,-0.7786,-0.8124,1.693
186.7430,1.4639,-0.4816,-0.5902,1.650
186.7520,1.8564,-0.2233,-0.7394,2.011
186.7600,2.1703,0.0362,-0.5145,2.231
186.7680,2.3841,0.1205,-0.3648,2.415
186.7770,2.2632,0.0292,-0.5485,2.329
186.7860,1.3640,-0.0015,-0.3225,1.402
186.8010,1.4680,0.0283,-0.3141,1.501
186.8040,0.6712,0.1956,0.0635,0.702
186.8150,0.2487,0.3050,-0.0110,0.394
186.8180,0.0625,0.4160,-0.5344,0.680
186.8270,0.0731,0.4696,-1.0570,1.159
186.8360,0.3781,0.5240,-1.1512,1.320
186.8430,0.4274,0.3242,-1.2291,1.341
186.8530,0.5346,0.3602,-1.2313,1.390
186.8600,0.5406,0.2591,-1.1366,1.285
186.8690,0.3877,0.1981,-1.0998,1.183
186.8770,-0.0017,0.2749,-0.9058,0.947
186.8860,-0.5088,0.4304,-0.6545,0.934
186.8940,-0.6842,0.5072,-0.4842,0.980
186.9020,-0.5873,0.5446,-0.4921,0.940
186.9100,-0.1781,0.8563,-0.6001,1.061
186.9190,0.5243,1.3248,-0.8273,1.648
186.9280,1.1106,1.5597,-0.8796,2.107
186.9430,1.3471,1.4638,-0.8948,2.181
186.9450,1.5643,1.4090,-0.7930,2.250
186.9630,1.8403,1.9039,-0.2218,2.657
186.9640,1.9399,1.9489,-0.2411,2.760
186.9700,2.1199,2.3873,0.2071,3.199
186.9780,2.2033,2.5530,0.3987,3.396
186.9870,2.1894,2.4852,0.2950,3.325
186.9950,2.3329,2.6149,0.3258,3.519
187.0030,2.3006,2.8239,0.0200,3.642
187.0120,2.9926,2.9551,-0.5238,4.238
187.0200,3.0974,3.0097,-0.5620,4.355
187.0290,3.1844,2.9882,-0.8978,4.458
187.0360,2.8829,2.7741,-0.8270,4.085
187.0450,2.1723,2.5821,-0.5655,3.421
187.0530,2.3996,2.3903,-0.5039,3.424
187.0620,2.8429,2.4944,-0.5468,3.821
187.0700,2.8394,3.2875,-1.2644,4.524
187.0800,2.9525,3.3556,-1.3424,4.667
187.0950,3.7648,5.0269,-2.0890,6.619
187.0960,5.1948,6.6922,-2.5210,8.839
187.1060,6.9088,8.0777,-3.0082,11.047
187.1130,8.5800,8.7582,-3.0428,12.633
187.1220,9.2801,8.8036,-2.9765,13.133
187.1290,9.3888,8.8866,-3.0444,13.281
187.1390,7.8688,8.3422,-2.9306,11.836
187.1460,4.7152,8.3008,-4.1417,10.406
187.1710,2.1693,8.5923,-6.3667,10.912
187.1720,1.3368,8.4227,-6.3869,10.655
187.1720,2.0359,7.8863,-5.4537,9.802
187.1800,3.2477,6.7110,-5.9057,9.511
187.1880,3.3259,6.7771,-6.0486,9.673
187.1960,4.8809,5.8572,-5.2644,9.265
187.2070,6.1088,5.4017,-3.4966,8.873
187.2130,7.3265,4.5922,-1.7421,8.820
187.2210,7.6628,2.5592,0.0579,8.079
187.2300,7.1928,0.6097,0.8001,7.263
187.2380,7.2782,-0.3520,0.9787,7.352
187.2470,7.2891,-0.3152,0.9178,7.353
187.2550,6.9546,-0.3160,0.4038,6.974
187.2630,6.0043,-0.0765,0.1898,6.008
187.2720,5.1969,-0.1903,0.3839,5.215
187.2810,4.7699,-0.5353,0.6085,4.838
187.2890,4.7427,-1.0901,0.6117,4.905
187.3000,4.6835,-1.4624,0.6655,4.951
187.3050,4.5544,-1.5915,0.7877,4.888
187.3140,4.2559,-1.8507,0.8028,4.710
187.3220,4.0232,-1.8471,0.7880,4.496
187.3310,4.0091,-1.7009,0.7433,4.418
187.3390,4.1977,-1.3480,1.0146,4.524
187.3550,4.2360,-1.0812,1.2654,4.551
187.3570,4.0861,-1.2118,1.3583,4.473
187.3670,4.0421,-0.8374,1.0426,4.258
187.3730,3.9047,-0.5088,0.9475,4.050
187.3900,3.5407,-0.2804,0.8714,3.657
187.3920,2.9512,-0.2486,0.7931,3.066
187.3980,2.2345,-0.2755,0.6143,2.334
187.4060,1.6047,-0.3025,0.4125,1.684
187.4140,1.3719,-0.4481,0.4999,1.527
187.4220,0.8915,-0.4949,0.4228,1.104
187.4310,0.7345,-0.4599,0.2989,0.917
187.4430,0.7028,-0.4024,0.3449,0.880
187.4490,0.7393,-0.3008,0.4640,0.923
187.4580,0.7833,0.0015,0.4840,0.921
187.4640,0.8798,0.2921,0.5412,1.073
187.4720,0.5768,0.1793,0.5982,0.850
187.4820,0.5814,0.4677,0.5571,0.931
187.5020,0.5805,0.6281,0.3395,0.920
187.5070,0.5384,0.7207,0.1793,0.917
187.5070,0.3745,0.8812,0.1891,0.976
187.5200,0.1891,0.8553,0.1715,0.893
187.5230,-0.1358,0.8000,0.2057,0.837
187.5320,-0.5366,0.8138,0.1540,0.987
187.5400,-0.9174,0.9545,-0.0229,1.324
187.5480,-1.2532,1.2809,-0.4614,1.850
187.5570,-1.7755,1.5379,-1.1594,2.619
187.5650,-2.4439,1.7638,-1.4120,3.328
187.5740,-2.9284,2.0362,-1.3969,3.831
187.5820,-3.2103,2.0412,-1.4078,4.056
187.5910,-3.7041,2.3275,-1.2859,4.560
187.6020,-4.0619,2.7190,-1.3039,5.059
187.6070,-3.6336,3.1565,-1.5391,5.053
187.6170,-3.0801,3.5801,-1.6968,5.018
187.6240,-3.0872,3.4373,-1.5033,4.859
187.6340,-4.0924,2.4934,-0.8477,4.867
187.6410,-4.3034,2.5319,-0.8877,5.071
187.6540,-5.7226,1.2229,-0.3661,5.863
187.6600,-6.4956,0.2550,-0.2970,6.507
187.6660,-6.6962,-0.0015,-0.2236,6.700
187.6750,-6.5711,0.0770,-0.1055,6.572
187.6840,-6.7983,-0.1790,-0.1781,6.803
187.6920,-6.5376,-0.4369,-0.1106,6.553
187.7000,-6.6782,-0.3823,-0.1436,6.691
187.7080,-5.9800,-0.4693,-0.4752,6.017
187.7170,-5.1477,-0.4443,-0.6729,5.210
187.7250,-4.7811,-0.2919,-0.6787,4.838
187.7340,-5.2107,-0.1113,-0.8631,5.283
187.7420,-5.7692,-0.0789,-1.0847,5.871
187.7500,-5.7652,-0.0796,-1.1245,5.874
187.7630,-6.0125,-0.2461,-1.2556,6.147
187.7780,-6.0208,-0.5976,-1.7517,6.299
187.7790,-5.8090,-1.1141,-1.8296,6.191
187.7850,-5.9240,-1.6000,-1.3146,6.276
187.7930,-6.5503,-2.2931,-1.0882,7.025
187.8000,-7.3232,-2.2487,-0.4623,7.675
187.8090,-7.1346,-2.3054,-0.4554,7.512
187.8170,-7.1862,-1.8525,-2.2689,7.760
187.8260,-5.9565,0.6268,-6.8197,9.076
187.8340,-2.9890,6.4301,-8.8601,11.348
187.8430,3.5900,11.8624,2.3733,12.619
187.8510,7.9572,12.8514,10.4342,18.367
187.8590,6.1625,8.8168,4.2166,11.554
187.8690,6.3303,8.7558,4.2180,11.599
187.8760,2.6082,4.9593,-4.4944,7.183
187.8840,-0.0990,3.3678,-5.4334,6.393
187.8930,-2.9493,2.0306,-2.5601,4.402
187.9010,-6.5841,0.1283,-1.9621,6.871
187.9180,-11.2692,-2.4483,-1.9353,11.693
187.9240,-13.3688,-4.0470,-0.7338,13.987
187.9260,-13.1943,-4.0464,-0.7119,13.819
187.9430,-12.5285,-3.9029,-0.5806,13.135
187.9500,-11.1950,-1.8372,-1.1776,11.406
187.9520,-10.1667,0.4033,-2.1712,10.404
187.9600,-8.7245,1.8785,-3.5288,9.597
187.9760,-6.5664,2.2759,-4.4728,8.265
187.9780,-6.4582,2.2813,-4.4054,8.144
187.9880,-3.8748,1.9514,-3.5766,5.623
188.0010,-1.5719,1.0907,-1.5392,2.456
188.0040,-0.2486,0.1914,0.2078,0.376
188.0100,0.2518,-0.5292,0.8932,1.068
188.0190,0.5531,-0.8355,0.8011,1.283
188.0270,1.0658,-0.5715,0.1885,1.224
188.0350,1.1463,-0.5607,0.2100,1.293
188.0440,1.7400,-0.0787,-0.4904,1.810
188.0550,1.3034,-0.0462,-0.4258,1.372
188.0620,1.3819,-0.1503,-0.1710,1.401
188.0750,1.3455,-0.7238,0.4680,1.598
188.0770,1.8360,-1.1000,0.7897,2.281
188.0850,2.2836,-1.2400,0.0139,2.599
188.0950,2.3758,-1.2220,0.0248,2.672
188.1020,2.8379,-0.8895,-0.9979,3.137
188.1110,3.2599,-0.3611,-1.4314,3.579
188.1190,2.9625,-0.3608,-1.4553,3.320
188.1280,2.0062,-0.4371,-1.5992,2.603
188.1360,1.4067,-0.3944,-1.0782,1.816
188.1450,1.3541,-0.5074,-0.2444,1.467
188.1530,1.4533,-0.4833,-0.2363,1.550
188.1620,1.4183,-0.2816,-0.2685,1.471
188.1700,1.0350,0.0398,-0.2588,1.068
188.1780,0.5577,0.3040,-0.1508,0.653
188.1860,0.1820,0.3735,-0.1633,0.446
188.2000,-0.0186,0.2477,-0.7256,0.767
188.2280,0.0924,0.2800,-0.7175,0.776
188.2300,0.1414,0.2934,-1.2756,1.317
188.2310,0.2080,0.2095,-1.2662,1.300
188.2320,0.0183,0.2041,-1.0446,1.065
188.2390,-0.1718,0.2578,-0.8268,0.883
188.2450,-0.2466,0.4095,-0.6098,0.775
188.2530,-0.1870,0.5221,-0.4123,0.691
188.2620,-0.0906,0.5564,-0.4115,0.698
188.2700,0.1417,0.5911,-0.2948,0.676
188.2780,0.5305,0.6660,-0.6682,1.082
188.2880,0.8809,0.7813,-0.8274,1.439
188.3010,1.2136,0.8589,-0.9693,1.775
188.3070,1.5071,1.0160,-1.6792,2.475
188.3120,1.9185,1.6442,-1.8594,3.137
188.3210,2.0192,1.6864,-1.8644,3.224
188.3280,2.2213,1.9852,-1.1495,3.193
188.3490,2.4078,2.1097,-0.6963,3.276
188.3590,2.8308,2.6662,-0.3854,3.908
188.3600,3.0827,3.1475,0.1374,4.408
188.3640,3.0839,3.2401,0.1082,4.474
188.3720,3.2040,3.2957,-0.1191,4.598
188.3800,3.2481,3.3938,-0.1520,4.700
188.3880,3.2360,3.4169,-0.2457,4.712
188.3970,3.1689,3.4635,-0.0305,4.695
188.4050,3.3005,3.6113,0.2178,4.897
188.4130,3.4724,3.8398,0.2238,5.182
188.4210,3.6456,4.1098,0.2419,5.499
188.4300,3.7793,4.1854,0.1731,5.642
188.4380,3.8314,4.3189,0.0346,5.774
188.4470,3.6633,4.4315,-0.1508,5.752
188.4550,3.6841,4.8736,-0.5783,6.137
188.4630,3.9517,5.9773,-2.1255,7.474
188.4720,5.1117,7.4089,-3.7284,9.743
188.4870,6.8083,9.0480,-4.6269,12.232
188.4900,6.8896,9.0948,-4.7283,12.351
188.4980,9.0041,10.7081,-5.5146,15.038
188.5070,11.4515,12.0315,-5.1621,17.394
188.5140,11.8620,12.2996,-3.5165,17.446
188.5230,8.3553,11.7643,-5.1362,15.316
188.5300,4.8141,10.3142,-5.3902,12.594
188.5390,3.4825,8.0242,-5.0507,10.101
188.5470,3.6236,8.1554,-5.1257,10.291
188.5560,3.8821,5.8057,-5.0505,8.619
188.5640,4.6283,3.8937,-5.3796,8.095
188.5720,5.5135,2.6964,-4.8982,7.853
188.5810,6.3779,2.7563,-1.2240,7.055
188.5890,5.4835,1.2376,0.0169,5.621
188.5980,5.5290,1.3099,-0.1241,5.683
188.6060,4.2734,-0.7628,-1.3840,4.556
188.6140,4.0182,-1.5067,-0.3316,4.304
188.6270,4.7386,-1.5538,0.0248,4.987
188.6310,4.6586,-1.5433,-0.1506,4.910
188.6500,4.1963,-1.7826,-0.0319,4.559
188.6510,3.6392,-2.0631,0.2581,4.191
188.6570,3.5767,-2.1267,0.2869,4.171
188.6650,3.0686,-2.3448,0.2735,3.872
188.6730,2.8195,-2.6184,-0.0402,3.848
188.6820,2.8106,-2.7679,-0.0888,3.946
188.6900,2.7630,-2.7378,0.3783,3.908
188.6990,2.7604,-2.6773,0.8277,3.934
188.7070,2.8817,-2.5064,0.9904,3.945
188.7160,2.7137,-2.6560,1.0857,3.949
188.7240,2.7491,-2.3971,1.1712,3.831
188.7320,2.7915,-2.1012,0.7365,3.571
188.7410,2.7801,-1.7883,0.4066,3.331
188.7590,2.6547,-1.3802,0.1951,2.998
188.7660,2.2818,-1.1866,0.1752,2.578
188.7670,1.7417,-0.9707,0.1883,2.003
188.7750,1.4852,-1.1232,0.2927,1.885
188.7820,0.7102,-0.8203,0.3120,1.129
188.7900,0.1407,-0.3763,0.4217,0.582
188.8000,-0.2410,-0.0054,0.2486,0.346
188.8070,-0.1822,0.3516,0.1893,0.439
188.8160,0.1087,0.6009,0.4000,0.730
188.8240,-0.1960,0.4861,0.4701,0.704
188.8330,-0.1714,0.5381,0.4782,0.740
188.8410,0.3531,0.4421,0.5631,0.798
188.8490,0.7765,0.4948,0.7459,1.185
188.8580,0.8817,0.5976,0.7924,1.328
188.8660,0.6917,0.6922,0.8384,1.289
188.8750,0.0550,0.7004,0.5876,0.916
188.8830,-0.2662,0.6606,0.6456,0.961
188.9010,-0.8187,0.7682,0.1305,1.130
188.9050,-1.4858,0.7871,-0.0586,1.682
188.9340,-2.0509,0.8735,-0.2951,2.249
188.9350,-2.5494,1.0465,-0.6369,2.828
188.9370,-3.1793,1.3055,-0.6332,3.495
188.9380,-3.3405,1.6503,-0.4990,3.759
188.9420,-3.6417,1.6697,-0.4904,4.036
188.9500,-3.3002,2.1087,-0.4498,3.942
188.9580,-2.3073,2.7307,-0.7282,3.648
188.9670,-1.0052,3.5135,-0.8154,3.744
188.9750,-1.4116,3.3948,-0.4564,3.705
188.9840,-2.1943,2.8427,-0.1862,3.596
188.9920,-4.2842,1.0757,0.2283,4.423
189.0020,-4.4676,1.1141,0.1812,4.608
189.0090,-5.6027,-0.3490,1.0031,5.702
189.0170,-5.0772,-0.5121,1.1701,5.235
189.0250,-5.0133,-0.4376,1.1228,5.156
189.0350,-5.0102,-0.3836,0.8643,5.099
189.0420,-5.1052,-0.1562,0.6289,5.146
189.0540,-5.2471,-0.1064,0.5715,5.279
189.0600,-4.8661,0.2538,0.4944,4.898
189.0730,-4.1549,1.0193,0.3789,4.295
189.0760,-5.7494,0.0720,-0.3801,5.762
189.0840,-6.4831,-0.4873,-0.4692,6.518
189.0930,-6.1555,-0.5954,-0.5366,6.207
189.1020,-6.0083,-0.6899,-0.4652,6.066
189.1090,-6.0382,-0.6745,-0.5079,6.097
189.1180,-5.9313,-0.3346,-1.0176,6.027
189.1270,-5.6813,-0.1048,-1.6019,5.904
189.1350,-5.6074,-0.1194,-1.6557,5.848
189.1430,-5.7084,-0.3585,-1.6311,5.948
189.1510,-5.9632,-0.6257,-1.5650,6.197
189.1680,-6.3323,-0.9983,-1.7286,6.639
189.1770,-6.2031,-1.0467,-1.7450,6.528
189.1790,-6.6212,-1.4328,-1.7104,6.987
189.1850,-6.9055,-1.6640,-1.9606,7.369
189.1940,-5.7374,-1.2254,-4.3214,7.287
189.2020,-3.4167,2.2795,-10.0398,10.847
189.2140,0.9539,9.9689,-5.6797,11.513
189.2190,7.3362,15.3034,10.7367,20.082
189.2280,7.3978,15.2452,10.6966,20.039
189.2350,7.3546,11.7473,7.5633,15.789
189.2440,4.5779,6.3508,-0.6768,7.858
189.2520,1.6624,3.2141,-5.0759,6.234
189.2610,-0.3098,1.5919,-2.8114,3.246
189.2690,-2.5045,0.0298,-0.8059,2.631
189.2790,-2.2221,-0.0183,-0.8046,2.363
189.2880,-4.6038,-1.8581,-0.8583,5.038
189.2940,-7.6545,-4.5025,-2.1458,9.136
189.3090,-9.4654,-5.7599,-2.2440,11.305
189.3120,-9.6444,-4.5996,-1.7515,10.828
189.3200,-9.7099,-1.7336,-1.7047,10.010
189.3280,-10.3429,1.6395,-1.8844,10.640
189.3370,-10.1698,1.6427,-1.8243,10.462
189.3490,-10.4147,3.8599,-2.5120,11.387
189.3620,-9.4670,3.9790,-3.3432,10.800
189.3640,-6.9391,2.4728,-3.4186,8.121
189.3740,-3.9024,1.2224,-1.9410,4.527
189.3770,-1.1700,0.2461,0.5533,1.317
189.3880,0.2533,-0.4163,2.1883,2.242
189.3950,0.3540,-0.4096,2.1782,2.245
189.4040,0.7956,-0.4962,1.9492,2.163
189.4110,0.8252,-0.4021,0.4256,1.012
189.4200,0.9105,-0.2475,-0.4438,1.043
189.4280,1.5036,-0.1516,0.2895,1.539
189.4370,1.8826,-0.0166,0.8773,2.077
189.4450,1.7765,0.0416,-0.4938,1.844
189.4580,1.8925,0.0637,-0.4689,1.951
189.4670,1.1522,-0.1066,-2.3966,2.661
189.4700,0.6631,-0.3540,-2.2846,2.405
189.4800,0.9069,-0.5653,-0.9930,1.459
189.4870,1.3208,-0.7990,-0.7963,1.737
189.4970,1.4827,-0.8150,-1.4218,2.210
189.5040,1.5882,-0.7878,-1.4094,2.265
189.5130,1.7494,-0.7202,-1.4131,2.361
189.5210,1.6950,-0.5944,-1.0720,2.092
189.5290,1.4663,-0.3705,-0.6980,1.666
189.5380,1.5471,0.1080,-1.2420,1.987
189.5470,1.6816,0.5275,-1.5267,2.332
189.5550,1.0340,0.5757,-1.0670,1.593
189.5630,1.1348,0.6048,-1.0651,1.670
189.5710,0.5505,0.0268,-0.6788,0.874
189.5930,0.1011,-0.4522,-0.4701,0.660
189.5940,-0.0182,-0.6759,-0.6731,0.954
189.5960,-0.2355,-0.4283,-0.9930,1.107
189.6070,-0.3537,0.1335,-1.1939,1.252
189.6130,-0.2368,0.4992,-1.1416,1.268
189.6210,-0.1403,0.5313,-1.1525,1.277
189.6300,-0.0252,0.8767,-1.0099,1.338
189.6400,0.1494,0.9485,-0.9669,1.363
189.6470,0.3254,0.8454,-0.7895,1.202
189.6560,0.4047,0.8809,-0.5756,1.127
189.6630,0.5050,0.9570,-0.5403,1.209
189.6810,0.7819,0.8585,-0.7203,1.366
189.6830,0.8823,0.8989,-0.7424,1.462
189.6890,1.2758,0.9793,-0.9815,1.884
189.6970,1.6106,1.0021,-1.1052,2.195
189.7170,1.8862,0.8107,-0.8976,2.241
189.7190,2.3176,1.3645,-0.7313,2.787
189.7220,2.4555,1.9578,-0.9982,3.295
189.7300,2.5571,2.0055,-1.0280,3.408
189.7390,2.4646,2.0560,-1.0376,3.373
189.7470,2.4907,1.9709,-0.8550,3.289
189.7560,2.4389,1.8681,-0.6163,3.133
189.7680,2.4089,2.1401,-0.5179,3.264
189.7740,2.3224,2.5121,-0.4623,3.452
189.7830,2.2959,2.6703,-0.4486,3.550
189.7900,2.4075,2.7328,-0.4976,3.676
189.8010,2.6567,2.8166,-0.4934,3.903
189.8070,2.6901,2.9801,-0.3773,4.032
189.8180,2.7055,2.7157,-0.1686,3.837
189.8270,3.0906,1.9637,-0.1955,3.667
189.8360,3.4728,2.1928,0.0095,4.107
189.8410,3.8343,2.5015,-0.3591,4.592
189.8730,3.9424,2.5790,-0.4345,4.731
189.8740,4.4282,3.6625,-1.0609,5.844
189.8750,4.4849,5.1402,-1.8681,7.073
189.8790,4.5115,6.0420,-2.4187,7.919
189.8920,5.1296,7.2844,-2.7275,9.317
189.8930,5.9843,8.8845,-3.6305,11.311
189.8990,6.0432,8.9277,-3.6754,11.390
189.9080,7.1822,9.7000,-4.5588,12.902
189.9150,7.8897,10.1591,-4.7229,13.703
189.9240,6.2524,10.6634,-5.5828,13.563
189.9320,3.1497,10.4845,-5.4122,12.212
189.9410,0.3476,8.7658,-4.1932,9.723
189.9490,-0.4718,6.5849,-4.4919,7.985
189.9600,-0.3808,6.6686,-4.5893,8.104
189.9660,0.5235,4.8054,-5.9713,7.683
189.9750,2.2738,3.4623,-4.8973,6.414
189.9820,4.0876,2.8762,-2.1512,5.441
189.9920,4.7177,1.8793,-0.4897,5.102
189.9990,4.2313,-0.2451,0.1765,4.242
190.0090,4.7793,-1.9174,0.2209,5.154
190.0160,4.7764,-1.8909,0.1061,5.138
190.0250,5.9609,-2.3300,-0.0897,6.401
190.0330,7.1506,-1.9246,-0.7078,7.439
190.0420,7.0423,-1.1944,-0.4219,7.155
190.0500,6.2255,-0.8052,0.3285,6.286
190.0590,5.5196,-0.9564,0.7395,5.650
190.0760,4.9008,-1.2988,0.6176,5.107
190.0790,4.8221,-1.3776,0.6479,5.057
190.0950,4.4397,-1.6045,0.4966,4.747
190.0970,4.2621,-1.6651,0.5097,4.604
190.1020,4.2293,-1.5200,0.6252,4.537
190.1090,4.2606,-1.2292,0.5867,4.473
190.1180,4.1258,-0.9045,0.4533,4.248
190.1250,3.9819,-1.0346,0.5199,4.147
190.1340,3.6726,-0.7366,0.2950,3.757
190.1420,3.4121,-0.6183,0.0133,3.468
190.1520,3.1421,-0.5413,-0.0720,3.189
190.1590,2.8615,-0.5250,-0.0211,2.909
190.1670,2.6271,-0.3546,0.1856,2.657
190.1750,2.5388,-0.0670,0.1568,2.545
190.1840,2.3221,-0.2100,0.2291,2.343
190.1920,2.2324,0.0993,0.1090,2.237
190.2000,2.2341,0.4913,0.1291,2.291
190.2100,2.1673,0.9841,0.0769,2.382
190.2190,2.1904,1.4615,-0.2438,2.645
190.2320,2.1511,1.7503,-0.4609,2.811
190.2350,1.8739,1.8707,-0.4984,2.694
190.2450,1.6139,1.7643,-0.3985,2.424
190.2510,1.3314,1.6466,-0.4362,2.162
190.2600,0.7318,1.6148,-0.6137,1.876
190.2670,0.1074,1.6293,-0.7942,1.816
190.2770,-0.7184,1.7483,-0.8823,2.086
190.2840,-1.2161,1.8936,-1.1932,2.547
190.2930,-1.8969,1.7912,-1.2556,2.895
190.3010,-2.1891,1.7359,-1.1898,3.037
190.3110,-2.4245,1.7083,-1.0155,3.135
190.3180,-2.5631,1.4348,-1.0638,3.124
190.3270,-2.4820,1.1512,-0.9218,2.887
190.3340,-1.9866,1.3074,-0.8630,2.530
190.3430,-1.3847,1.4913,-1.0432,2.287
190.3510,-1.6524,1.4870,-1.0097,2.441
190.3810,-1.2157,1.8416,-0.9593,2.406
190.3830,-1.0975,2.0442,-1.0887,2.563
190.3840,-1.4293,2.3088,-1.5940,3.149
190.3860,-2.4120,2.4385,-1.9280,3.935
190.3940,-3.9710,1.8654,-1.7798,4.735
190.4030,-4.9384,0.6690,-1.3502,5.163
190.4100,-5.1261,0.6910,-1.3648,5.349
190.4200,-6.0783,-0.9668,-0.7966,6.206
190.4270,-6.5009,-1.6970,-0.1700,6.721
190.4350,-6.2359,-1.5797,-0.1268,6.434
190.4430,-5.7530,-1.1450,-0.3886,5.879
190.4530,-5.0647,-0.6309,-0.3508,5.116
190.4610,-4.5587,-0.5488,-0.0988,4.593
190.4690,-4.7069,-0.5071,-0.1063,4.735
190.4780,-4.4512,-0.5843,-0.3128,4.500
190.4860,-4.2617,-0.6043,-0.1677,4.308
190.4940,-4.3510,-0.7058,0.0145,4.408
190.5130,-4.6351,-1.1452,-0.0019,4.774
190.5210,-4.9438,-1.3918,-0.1361,5.138
190.5220,-5.3553,-1.5048,-0.3876,5.576
190.5280,-5.3985,-1.4855,-0.4041,5.614
190.5370,-5.9523,-1.5700,-0.6552,6.191
190.5450,-6.6362,-1.6043,-0.7676,6.870
190.5540,-7.2212,-1.5078,-1.0530,7.452
190.5630,-7.3379,-1.2795,-0.9990,7.515
190.5700,-7.0462,-1.2717,-0.9193,7.219
190.5790,-6.9732,-1.2879,-0.9114,7.149
190.5860,-6.3869,-1.4865,-0.7388,6.599
190.5950,-5.9795,-1.9624,-0.5605,6.318
190.6030,-5.8469,-2.3238,-0.1044,6.293
190.6120,-5.5198,-1.8065,-0.6251,5.841
190.6200,-4.0471,0.2764,-3.3081,5.234
190.6310,-1.2291,4.6716,-7.1920,8.664
190.6370,-1.0911,4.6422,-7.1006,8.553
190.6480,4.6389,10.5657,1.0044,11.583
190.6540,10.1492,16.5449,17.8524,26.371
190.6620,7.0481,13.0020,9.9066,17.801
190.6700,1.1307,7.2995,-2.5161,7.803
190.6790,-4.2301,4.2471,-5.2001,7.936
190.6900,-8.6582,0.6960,-2.0929,8.935
190.6950,-8.3927,0.6724,-2.0787,8.672
190.7060,-11.2104,-3.4214,-0.6241,11.737
190.7130,-12.1549,-6.5393,-0.1443,13.803
190.7260,-11.1615,-6.9217,-0.8717,13.162
190.7330,-9.1130,-5.0849,-2.9386,10.842
190.7480,-8.5556,-2.1295,-4.7336,10.007
190.7520,-9.2917,1.7065,-4.8186,10.605
190.7540,-9.1364,1.7188,-4.7386,10.435
190.7700,-9.2869,4.9956,-4.0461,11.295
190.7710,-6.9760,4.7184,-4.0073,9.327
190.7800,-3.9665,2.9311,-3.0076,5.777
190.7880,-1.5337,0.9684,-0.7164,1.950
190.7960,0.6241,-0.3653,2.2026,2.318
190.8080,0.7059,-0.3645,2.1580,2.300
190.8140,2.2817,-1.0843,3.3195,4.171
190.8220,2.8833,-1.0920,1.8993,3.621
190.8320,2.8606,-0.4881,-0.1827,2.908
190.8380,2.4322,0.0582,-1.4937,2.855
190.8470,1.3428,-0.0816,-1.2646,1.846
190.8550,0.7814,-0.4965,-0.6756,1.146
190.8650,0.8819,-0.4816,-0.6866,1.217
190.8720,0.4282,-1.1726,-0.4702,1.334
190.8810,0.4992,-1.2746,-0.9964,1.693
190.8880,0.5721,-1.0031,-1.1096,1.601
190.8980,0.6495,-0.8085,-0.7922,1.305
190.9050,1.4124,-0.4565,-0.6507,1.621
190.9260,2.0962,-0.2799,-1.0370,2.355
190.9280,2.1933,-0.2582,-1.0475,2.444
190.9300,2.9358,-0.0979,-1.2109,3.177
190.9390,3.5400,0.1223,-1.5670,3.873
190.9470,3.2254,0.0892,-1.5905,3.597
190.9560,2.8350,0.0970,-1.6134,3.263
190.9640,2.1141,0.0672,-1.3821,2.527
190.9720,1.1810,-0.0592,-0.9980,1.547
190.9810,1.2882,-0.0273,-1.0076,1.636
190.9890,0.3973,-0.0528,-0.8803,0.967
190.9980,-0.3360,-0.0183,-1.1248,1.174
191.0070,-0.8920,-0.0025,-0.6465,1.102
191.0150,-1.2713,0.1510,-0.3482,1.327
191.0240,-1.2803,0.2846,-0.2693,1.339
191.0310,-1.1747,0.3201,-0.2898,1.252
191.0510,-0.9738,0.4536,-0.0964,1.079
191.0530,-0.5789,0.4895,-0.1199,0.768
191.0580,0.0279,0.6626,-0.1824,0.688
191.0650,0.6131,0.7776,-0.4598,1.092
191.0750,1.0413,0.8745,-0.7945,1.575
191.0810,1.3521,1.0316,-1.1865,2.074
191.0900,1.4471,1.0725,-1.2046,2.167
191.0980,1.6411,1.3501,-1.3013,2.492
191.1070,1.6405,1.8246,-1.2236,2.742
191.1170,1.4859,2.1831,-0.8551,2.776
191.1240,1.5691,2.4062,-0.6084,2.936
191.1330,2.3782,2.6310,-0.3650,3.565
191.1410,3.0899,2.8772,-0.2048,4.227
191.1490,3.1983,2.9309,-0.2483,4.345
191.1570,3.6448,3.0675,-0.1004,4.765
191.1680,3.9763,3.0709,-0.3856,5.039
191.1740,3.9006,3.1771,-0.4582,5.052
191.1940,3.5758,3.1915,-0.5309,4.822
191.1990,3.4341,3.1738,-0.9575,4.773
191.2000,3.4303,3.1596,-1.2107,4.818
191.2130,3.5632,3.2462,-1.2728,4.985
191.2160,3.8317,3.2177,-1.5363,5.234
191.2250,3.9639,3.4281,-1.3416,5.410
191.2330,4.0565,4.3852,-2.1944,6.364
191.2410,4.6747,6.0278,-2.8314,8.137
191.2500,5.6963,8.1751,-3.7427,10.644
191.2580,5.8088,8.2611,-3.8323,10.802
191.2670,6.8167,10.3238,-5.1151,13.387
191.2750,7.6927,11.6295,-5.8713,15.129
191.2830,7.1537,11.6603,-6.0691,14.966
191.2930,4.1466,10.8915,-6.4858,13.337
191.3000,1.3680,9.6895,-6.9027,11.975
191.3120,0.7865,8.4190,-5.4262,10.047
191.3170,0.8925,8.5271,-5.5558,10.216
191.3310,1.0484,6.8683,-5.1684,8.659
191.3340,1.0875,5.1372,-4.6190,6.993
191.3430,1.6967,3.6481,-4.7129,6.197
191.3510,3.6223,2.1698,-3.8875,5.739
191.3590,4.5181,0.3937,-1.3734,4.739
191.3670,5.3050,-0.9975,-0.3008,5.406
191.3760,5.2809,-0.9916,-0.4001,5.388
191.3840,7.6034,-1.7235,-0.1858,7.798
191.3920,9.3950,-2.0677,-0.8109,9.654
191.4000,7.7092,-2.1919,-0.5929,8.037
191.4090,5.5992,-2.2580,-0.1569,6.039
191.4190,4.2469,-2.3969,0.0192,4.877
191.4260,3.4518,-2.5909,-0.2028,4.321
191.4340,3.3869,-2.6638,-0.1252,4.311
191.4430,3.1646,-2.8351,-0.3010,4.259
191.4510,3.3581,-2.8623,-0.1052,4.414
191.4620,3.5772,-2.7224,0.0489,4.496
191.4680,3.6278,-2.5701,0.1038,4.447
191.4840,3.5310,-2.2274,0.1414,4.177
191.4860,3.3838,-2.3604,0.2213,4.132
191.4930,3.3040,-1.8905,0.1099,3.808
191.5030,3.3130,-1.3249,0.0599,3.569
191.5090,3.4115,-0.7800,0.1092,3.501
191.5190,3.2660,-0.4314,0.3368,3.312
191.5270,2.9747,-0.1414,0.4879,3.018
191.5350,2.5794,-0.0446,0.5454,2.637
191.5430,2.3740,-0.1791,0.6479,2.467
191.5520,1.9461,-0.0750,0.6964,2.068
191.5600,1.5517,0.0729,0.6511,1.684
191.5690,1.3446,0.3807,0.6096,1.525
191.5770,1.3460,0.7910,0.5902,1.669
191.5850,1.3978,1.1864,0.4777,1.895
191.5940,1.2854,1.5677,0.1732,2.035
191.6050,1.0325,1.4672,0.3020,1.819
191.6130,0.7764,1.6884,0.1173,1.862
191.6340,0.6523,1.7209,-0.0286,1.841
191.6360,0.4051,1.7216,0.0969,1.771
191.6370,0.0765,1.6515,0.1943,1.665
191.6440,-0.4110,1.5696,0.2842,1.647
191.6520,-1.0008,1.5147,0.3486,1.849
191.6610,-1.2382,1.3696,0.4439,1.899
191.6690,-1.5355,1.2911,0.5703,2.086
191.6780,-1.6167,1.4941,0.6886,2.307
191.6860,-1.3666,1.7240,0.9974,2.416
191.6940,-0.5470,2.1766,0.9490,2.437
191.7030,0.0399,2.5775,0.8968,2.729
191.7120,-0.2245,2.5737,0.9562,2.755
191.7200,0.2878,2.9669,1.0257,3.152
191.7280,0.2293,3.2268,0.5386,3.279
191.7360,-1.0240,2.7256,0.2579,2.923
191.7450,-2.6806,1.8748,0.5329,3.314
191.7530,-2.9309,1.3009,0.8882,3.327
191.7730,-3.1848,1.0816,0.9504,3.495
191.7740,-3.3926,1.0995,0.9244,3.684
191.7780,-4.0400,0.8454,0.5412,4.163
191.7920,-5.0676,0.5544,0.2722,5.105
191.7950,-5.8876,-0.0872,0.4889,5.909
191.8040,-5.5913,-0.4317,0.7171,5.654
191.8120,-5.0983,-0.8518,0.7231,5.219
191.8210,-4.6553,-1.4657,0.3360,4.892
191.8280,-4.8058,-1.4330,0.2813,5.023
191.8370,-4.5885,-1.6756,0.3838,4.900
191.8460,-4.2289,-1.0356,-0.0596,4.354
191.8540,-4.5220,-0.5547,-0.7332,4.615
191.8620,-5.1335,-0.5078,-0.9742,5.250
191.8710,-5.6136,-0.8945,-0.7267,5.731
191.8790,-5.6841,-0.8735,-0.7714,5.802
191.8960,-6.0348,-1.4817,-0.5568,6.239
191.9040,-6.0584,-1.7390,-0.4316,6.318
191.9050,-5.7357,-1.7241,-0.4704,6.008
191.9150,-5.3214,-1.5166,-0.3227,5.543
191.9220,-4.8877,-1.5314,0.1418,5.124
191.9330,-4.7914,-1.6499,0.3684,5.081
191.9380,-4.7564,-1.6573,0.3549,5.049
191.9470,-4.8015,-2.0043,0.6295,5.241
191.9550,-5.0244,-1.8285,1.1141,5.462
191.9640,-4.9750,-1.4432,-0.1271,5.182
191.9710,-3.8429,-0.4117,-2.4276,4.564
191.9800,-3.1540,1.8326,-6.2264,7.216
191.9880,-1.0066,6.1091,-8.3299,10.379
191.9970,-0.8996,6.0755,-8.2563,10.290
192.0050,4.0678,10.9474,1.1676,11.737
192.0150,5.3314,15.9485,12.5090,20.958
192.0250,1.5404,13.5294,5.2240,14.585
192.0320,-3.8372,9.9694,-3.9798,11.400
192.0380,-8.3763,5.3382,-3.2981,10.466
192.0470,-12.5984,-0.0839,0.7660,12.622
192.0560,-12.3754,-0.1170,0.7192,12.397
192.0730,-14.0287,-4.3135,1.5536,14.759
192.0740,-12.7204,-6.3372,1.9667,14.347
192.0800,-10.8161,-6.1563,1.4702,12.532
192.0900,-8.6212,-4.1683,-1.1663,9.647
192.0970,-6.8426,-1.1600,-3.3855,7.722
192.1200,-6.7408,-1.1485,-3.2900,7.588
192.1220,-5.6913,2.2295,-4.4362,7.553
192.1240,-4.4140,4.6400,-5.2262,8.266
192.1320,-2.3340,4.4790,-6.2339,8.023
192.1460,-0.5438,2.8643,-5.1997,5.961
192.1490,0.0122,1.0915,-2.1620,2.422
192.1560,0.6484,-0.4851,1.3378,1.564
192.1650,0.7170,-0.4939,1.2759,1.545
192.1730,1.0238,-1.5378,3.2382,3.728
192.1810,1.0977,-1.6549,3.4982,4.023
192.2090,1.2103,-1.1022,2.8396,3.278
192.2100,1.1452,-0.5674,1.0422,1.649
192.2110,1.0976,-0.2273,-0.9367,1.461
192.2250,1.0670,-0.1420,-1.7955,2.093
192.2260,1.1350,-0.1359,-1.7807,2.116
192.2320,0.9699,-0.4050,-1.8739,2.149
192.2420,0.5912,-0.5956,-2.2271,2.380
192.2500,0.4495,-0.5703,-2.5831,2.683
192.2560,0.6803,-0.6040,-1.6509,1.885
192.2660,1.2234,-0.6583,-0.2024,1.404
192.2730,1.8647,-0.4975,0.2186,1.942
192.2820,1.9398,-0.4920,0.1925,2.010
192.2900,2.4290,-0.1712,0.1544,2.440
192.3030,2.8805,0.1898,-0.4080,2.915
192.3170,2.4348,0.2577,-0.7143,2.550
192.3180,2.2103,0.3072,-0.5718,2.304
192.3250,2.2216,0.1808,-0.6878,2.333
192.3320,2.3134,0.1925,-0.7088,2.427
192.3410,2.0744,-0.0685,-1.1410,2.369
192.3490,1.5640,-0.2495,-1.1426,1.953
192.3570,0.9578,-0.4094,-1.0875,1.506
192.3650,0.5681,-0.4311,-0.8183,1.085
192.3760,0.3557,-0.2949,-0.6477,0.796
192.3820,0.3009,-0.1382,-0.6349,0.716
192.3930,0.4027,-0.1178,-0.6620,0.784
192.3990,0.3077,-0.0771,-0.5335,0.621
192.4090,0.3096,-0.0358,-0.1140,0.332
192.4150,0.2138,-0.0718,0.0101,0.226
192.4250,0.0983,-0.1064,0.1740,0.226
192.4320,0.0994,-0.1009,0.1229,0.187
192.4630,0.3735,-0.0356,-0.1034,0.389
192.4650,0.4712,-0.0082,-0.1322,0.489
192.4650,0.6460,0.1767,-0.3355,0.749
192.4670,0.7611,0.3036,-0.6548,1.049
192.4760,0.6605,0.2356,-0.8360,1.091
192.4830,0.2665,0.1297,-0.8029,0.856
192.4920,0.0676,0.1615,-0.5943,0.620
192.5000,0.1811,0.3507,-0.1115,0.410
192.5080,0.2740,0.3836,-0.1389,0.491
192.5160,0.5225,0.6912,-0.3039,0.918
192.5250,0.9671,1.0585,-0.2527,1.456
192.5360,1.2557,1.2899,-0.2211,1.814
192.5410,1.5652,1.4052,-0.6216,2.193
192.5520,1.9542,1.4245,-1.1776,2.690
192.5580,2.0514,1.4659,-1.2044,2.794
192.5680,2.4063,1.5688,-1.9773,3.487
192.5750,2.7255,1.8509,-2.0864,3.900
192.6100,3.0099,2.4103,-1.1629,4.028
192.6110,3.0835,2.7181,-0.4048,4.130
192.6110,3.3768,3.1668,-0.0244,4.629
192.6130,4.0828,3.5398,0.2172,5.408
192.6170,4.2004,3.6012,0.1606,5.535
192.6260,4.7133,3.5891,0.1009,5.925
192.6340,5.1521,3.6809,0.0021,6.332
192.6420,5.4376,4.0329,-0.2341,6.774
192.6510,5.4176,4.9800,-1.5452,7.519
192.6590,5.9696,6.6954,-2.2434,9.246
192.6670,6.7549,9.2329,-3.1504,11.866
192.6790,6.8938,9.3235,-3.1899,12.026
192.6870,7.5048,11.7687,-4.2084,14.579
192.6940,8.0235,13.7880,-4.9613,16.706
192.7010,8.4917,12.8409,-4.9274,16.164
192.7110,5.9600,9.9384,-4.3047,12.362
192.7180,2.5235,7.2750,-4.1080,8.727
192.7330,0.3580,5.8917,-6.5350,8.806
192.7350,0.5267,6.0489,-6.6235,8.985
192.7440,0.5157,5.3505,-5.8801,7.967
192.7510,0.8689,4.3030,-3.5467,5.644
192.7620,1.4288,3.0031,-3.6482,4.937
192.7680,2.8044,2.6039,-5.6601,6.832
192.7770,4.5094,2.1060,-3.7885,6.255
192.7850,4.5358,2.1646,-3.9031,6.363
192.7940,6.0685,0.9272,-2.3993,6.591
192.8020,8.4386,0.0746,-1.9829,8.669
192.8110,10.4075,-0.5147,-1.9436,10.600
192.8190,8.6007,-1.1620,-1.2058,8.762
192.8270,6.1352,-1.3790,-0.6037,6.317
192.8350,4.6030,-1.3775,-0.5328,4.834
192.8450,4.5665,-1.4150,-0.4858,4.805
192.8540,3.8096,-1.4123,-0.5484,4.100
192.8600,3.6600,-1.2949,-0.5266,3.918
192.8720,3.8486,-1.0352,-0.1672,3.989
192.8800,4.1601,-0.5535,-0.2917,4.207
192.8910,4.4772,-0.1423,-0.4474,4.502
192.9030,4.7616,0.2009,-0.5565,4.798
192.9040,4.6192,0.0643,-0.4654,4.643
192.9110,4.7389,0.1383,-0.4509,4.762
192.9190,4.5944,0.1717,-0.2800,4.606
192.9290,4.0871,0.1642,-0.0125,4.090
192.9370,3.5483,0.1737,0.2138,3.559
192.9550,2.9349,0.2568,0.4974,2.988
192.9560,2.5247,0.3978,0.8948,2.708
192.9610,2.2971,0.2449,0.9754,2.508
192.9720,2.0375,0.3288,1.2506,2.413
192.9780,1.8036,0.3557,1.4886,2.365
193.0210,1.7918,0.5424,1.4950,2.396
193.0540,2.0400,0.6547,1.4674,2.597
193.0550,2.3143,0.7532,1.4644,2.840
193.0550,2.0119,0.6254,1.5612,2.622
193.0560,2.1510,0.6831,1.7382,2.849
193.0820,2.0475,0.6530,1.8382,2.828
193.0820,1.6833,0.7904,1.6649,2.496
193.0830,1.2742,0.9975,1.3548,2.110
193.0840,0.6264,1.2351,1.3918,1.963
193.0850,-0.2389,1.3859,1.3608,1.957
193.0860,-0.5744,1.3325,1.4361,2.042
193.0900,-1.4988,1.4270,1.0891,2.339
193.0960,-2.2878,1.6103,1.0054,2.973
193.0970,-2.5683,2.0775,0.7906,3.397
193.1060,-2.5747,2.7502,0.4478,3.794
193.1120,-2.5732,3.0019,0.6662,4.010
193.1210,-1.9780,3.1651,0.7591,3.809
193.1300,-2.2935,3.1799,0.7600,3.994
193.1370,-1.7370,3.2804,1.0010,3.845
193.1460,-1.3171,3.4448,0.9175,3.800
193.1540,-1.6012,3.3188,-0.0386,3.685
193.1690,-2.2338,2.8818,-0.2407,3.654
193.1730,-4.5848,1.8191,-0.5179,4.960
193.1800,-5.8235,1.2683,-0.4819,5.979
193.1960,-6.0176,1.3085,-0.5783,6.185
193.1980,-7.1404,1.0958,-0.8420,7.273
193.2080,-8.4560,0.3930,-1.6969,8.633
193.2190,-9.3312,-0.4296,-1.9991,9.553
193.2220,-9.8337,-1.3314,-1.7887,10.083
193.2300,-8.3093,-1.2335,-2.2389,8.694
193.2460,-8.4015,-1.1957,-2.3243,8.799
193.2470,-7.4484,-1.2830,-2.9803,8.124
193.2550,-7.1071,-1.7343,-3.5979,8.153
193.2630,-7.2299,-2.2327,-3.7272,8.435
193.2750,-7.7182,-2.6022,-3.7033,8.947
193.2880,-8.2783,-2.9016,-3.7984,9.559
193.2900,-8.9717,-3.1686,-3.5411,10.152
193.2970,-8.8741,-3.1889,-3.4971,10.057
193.3120,-9.1500,-3.6443,-3.0229,10.303
193.3140,-9.5251,-4.2785,-2.3214,10.697
193.3270,-9.9226,-3.7194,-2.4327,10.872
193.3330,-6.6363,0.9707,-4.0974,7.860
193.3390,-3.5856,4.0869,-5.1693,7.502
193.3470,1.1195,7.4927,-1.8601,7.801
193.3550,1.2174,7.4557,-1.8178,7.770
193.3730,5.5545,10.9910,3.7593,12.876
193.3750,11.0268,13.1305,8.3446,19.069
193.3850,10.7377,11.0213,3.2276,15.722
193.3900,5.2437,8.5280,-4.6901,11.055
193.3980,-3.0594,4.7236,-4.9955,7.525
193.4060,-2.6535,0.2830,-2.5353,3.681
193.4180,-11.2336,0.2084,-2.5394,11.519
193.4220,-17.4071,-3.5480,0.8246,17.784
193.4330,-17.9537,-5.9536,2.7935,19.120
193.4400,-13.9840,-6.3900,1.1728,15.419
193.4490,-10.9349,-4.7262,-1.8941,12.062
193.4570,-8.9405,-1.8281,-4.2778,10.078
193.4650,-8.8175,-1.8100,-4.1650,9.918
193.4820,-7.3988,1.2428,-5.3974,9.242
193.4830,-6.2060,3.3289,-5.7690,9.104
193.4900,-4.2454,3.6656,-5.2473,7.681
193.4990,-2.0663,2.3341,-3.4824,4.674
193.5070,-0.7776,0.7477,-1.0402,1.499
193.5150,-0.0962,-0.5437,1.2997,1.412
193.5240,-0.0194,-0.5400,1.2643,1.375
193.5330,0.4512,-1.1796,2.7474,3.024
193.5410,1.0564,-1.1498,3.1676,3.532
193.5490,1.5231,-0.7644,1.9628,2.599
193.5620,1.7547,-0.2003,0.3106,1.793
193.5680,1.7528,0.2474,-0.4690,1.831
193.5740,1.7722,0.3420,-0.3914,1.847
193.5910,1.8515,0.3578,-0.3627,1.920
193.5920,1.7754,0.1972,-0.2051,1.798
193.5990,1.7182,-0.0612,-0.3081,1.747
193.6100,1.3289,-0.4948,-0.3541,1.462
193.6230,0.4140,-0.8870,-1.2016,1.550
193.6250,-0.0268,-0.9438,-2.4747,2.649
193.6340,0.0633,-0.9204,-2.4494,2.617
193.6410,0.4445,-0.7210,-2.7996,2.925
193.6500,0.9398,-0.6212,-2.0230,2.316
193.6580,1.5108,-0.5419,-1.1969,2.002
193.6670,1.9648,-0.1489,-0.8445,2.144
193.6750,2.4012,0.1672,-0.6847,2.503
193.6830,2.4674,0.4452,-0.5235,2.561
193.6930,2.5584,0.4704,-0.5205,2.653
193.6990,2.3211,0.5954,-0.3036,2.415
193.7080,1.8115,0.5652,-0.3411,1.928
193.7190,1.2441,0.3797,-0.2996,1.335
193.7250,0.7952,0.2544,-0.3364,0.900
193.7360,0.5426,0.2872,-0.4898,0.785
193.7410,0.2514,0.2625,-0.9356,1.004
193.7500,0.3511,0.2973,-0.9314,1.039
193.7580,-0.0586,0.2545,-0.9088,0.946
193.7670,-0.4686,0.2322,-0.7102,0.882
193.7770,-0.6646,0.1318,-0.8656,1.099
193.7840,-0.6091,0.2074,-0.9829,1.175
193.7970,-0.3990,0.3024,-1.0622,1.174
193.8000,-0.0736,0.3975,-1.2795,1.342
193.8100,0.0151,0.4338,-1.2823,1.354
193.8170,0.2414,0.5493,-0.9748,1.145
193.8270,0.4472,0.6259,-0.8263,1.129
193.8350,0.6335,0.6447,-0.9334,1.299
193.8480,0.8188,0.8601,-0.8439,1.457
193.8510,1.0041,1.1547,-0.3827,1.577
193.8600,1.0928,1.1955,-0.3949,1.667
193.8680,1.4183,1.6297,-0.1349,2.165
193.8760,1.9999,2.0849,-0.0721,2.890
193.8840,2.4262,2.3063,-0.1690,3.352
193.8930,2.6397,2.3540,-0.5808,3.584
193.9010,2.7572,2.3067,-0.9126,3.709
193.9100,2.8569,2.1837,-0.9908,3.730
193.9190,2.9585,2.2396,-1.0128,3.846
193.9260,2.6904,2.0829,-0.9979,3.546
193.9350,2.4052,2.0663,-0.9074,3.298
193.9430,2.1038,2.1313,-0.7621,3.090
193.9520,2.0392,2.2379,-0.4046,3.055
193.9600,2.2303,2.3075,-0.1504,3.213
193.9690,2.4412,2.2222,-0.0017,3.301
193.9770,2.5566,2.2973,-0.0559,3.438
193.9870,2.7332,2.2393,-0.3320,3.549
193.9930,3.2222,2.3008,-0.5355,3.995
194.0020,3.5942,2.7180,-1.2744,4.683
194.0100,4.3965,3.4903,-2.7976,6.272
194.0190,5.9205,4.7140,-3.2225,8.226
194.0270,7.1680,6.0759,-3.2791,9.952
194.0370,7.2800,6.1684,-3.3600,10.116
194.0440,8.1199,7.2667,-3.6571,11.494
194.0520,8.1604,8.0394,-3.7769,12.062
194.0610,7.4431,8.7625,-2.7613,11.824
194.0690,5.7751,9.2620,-1.7110,11.048
194.0790,3.7412,9.5547,-2.2680,10.509
194.0860,3.8813,9.6946,-2.3536,10.705
194.0950,2.3131,9.9729,-3.2276,10.734
194.1030,1.1551,9.6273,-2.8391,10.103
194.1110,0.4410,8.7320,-2.6177,9.127
194.1200,0.6134,7.6314,-4.1569,8.712
194.1300,2.2891,6.9010,-5.5775,9.164
194.1380,4.5653,5.8736,-4.8885,8.902
194.1450,4.6101,5.9482,-5.0108,9.041
194.1540,6.7170,5.3064,-4.2876,9.574
194.1620,6.5684,4.5362,-0.5131,7.999
194.1710,4.1756,2.0593,-0.8086,4.725
194.1790,3.5263,0.5202,-1.3384,3.807
194.1870,4.3400,0.0961,-1.3062,4.533
194.1950,5.2184,0.5996,-2.0322,5.632
194.2030,5.1793,0.5652,-2.0686,5.606
194.2120,6.0948,0.8531,-2.0090,6.474
194.2200,4.6577,0.5097,-1.5484,4.935
194.2290,3.4327,-0.0009,-1.3888,3.703
194.2390,2.9012,-0.4748,-1.3266,3.225
194.2450,2.7881,-0.9478,-1.1725,3.170
194.2570,2.9935,-1.3408,-0.8305,3.384
194.2650,2.8910,-1.4752,-0.7714,3.336
194.2710,3.1672,-1.7010,-0.3859,3.616
194.2790,3.4477,-1.5880,-0.3559,3.812
194.2880,3.6579,-1.4035,-0.4503,3.944
194.2950,3.6421,-1.0858,-0.5364,3.838
194.3040,3.3798,-0.7721,-0.7531,3.548
194.3130,3.2042,-0.9503,-0.6330,3.402
194.3210,2.7601,-0.6810,-0.6492,2.916
194.3290,2.2847,-0.5886,-0.5501,2.423
194.3380,1.8159,-0.6924,-0.3940,1.983
194.3460,1.3158,-0.8333,-0.2027,1.571
194.3540,0.8630,-0.9320,-0.1330,1.277
194.3630,0.6293,-1.0105,-0.1438,1.199
194.3710,0.3621,-1.1834,-0.0400,1.238
194.3810,0.2214,-1.1734,0.0387,1.195
194.3880,0.1099,-1.1757,0.1734,1.193
194.4000,0.0465,-1.0136,0.2694,1.050
194.4050,-0.0255,-0.8229,0.4253,0.927
194.4130,-0.1249,-0.6221,0.5640,0.849
194.4210,-0.2294,-0.3513,0.5672,0.705
194.4300,-0.5548,-0.4607,0.6694,0.984
194.4390,-0.5317,-0.0293,0.4976,0.729
194.4470,-0.3400,0.4519,0.3067,0.643
194.4550,-0.2654,0.9653,0.0359,1.002
194.4630,-0.3678,1.2947,-0.1402,1.353
194.4720,-0.6659,1.4784,-0.2473,1.640
194.4800,-1.1404,1.4967,-0.4816,1.942
194.4890,-1.4746,1.4671,-0.4128,2.121
194.4970,-1.8424,1.6634,-0.3946,2.513
194.5050,-2.3396,1.7517,-0.3471,2.943
194.5140,-2.7673,1.7511,-0.3877,3.298
194.5220,-2.5013,1.8567,-0.3578,3.136
194.5330,-2.5811,2.1263,-0.2973,3.357
194.5410,-2.8641,2.1475,-0.2832,3.591
194.5470,-1.9818,2.8378,-0.3147,3.476
194.5570,-2.0722,2.9212,-0.9221,3.698
194.5650,-4.3561,1.7723,-0.7730,4.766
194.5730,-5.4762,0.6470,-0.2254,5.519
194.5810,-5.5096,0.1548,0.1306,5.513
194.5900,-5.7227,0.1183,0.2821,5.731
194.5980,-5.9265,0.1626,0.2333,5.933
194.6060,-6.5614,0.2849,0.0671,6.568
194.6140,-7.0601,-0.0438,-0.0378,7.060
194.6230,-6.8433,-0.3907,0.3675,6.864
194.6310,-6.0679,-0.5807,0.3023,6.103
194.6400,-5.1289,-0.7901,0.3148,5.199
194.6480,-4.6047,-1.0030,0.3847,4.728
194.6570,-4.7071,-0.9668,0.3344,4.817
194.6650,-4.6504,-0.8399,0.0285,4.726
194.6740,-5.2511,-0.6055,-0.3944,5.301
194.6820,-5.8686,-0.4379,-0.7175,5.928
194.6900,-6.4441,-0.4547,-1.0386,6.543
194.6990,-6.6442,-0.5772,-1.3548,6.805
194.7070,-6.7041,-0.7465,-1.4098,6.891
194.7150,-6.6359,-0.7695,-1.4389,6.834
194.7230,-6.4678,-0.6820,-1.5606,6.688
194.7320,-5.1108,0.4000,-3.1994,6.043
194.7410,-4.0536,1.2029,-3.2139,5.311
194.7490,-5.3866,2.4047,-5.0991,7.797
194.7570,-5.3548,3.2858,-4.8501,7.937
194.7660,-5.1781,3.2345,-4.8011,7.767
194.7740,-1.4682,5.4661,-0.5328,5.685
194.7830,2.0058,8.9923,3.6840,9.923
194.7910,2.4506,10.7440,3.1718,11.467
194.8000,0.6756,10.1358,-1.9143,10.337
194.8080,-1.2257,8.7677,-4.5477,9.953
194.8180,-2.8833,3.4326,-1.7323,4.806
194.8240,-2.6382,3.3899,-1.7267,4.630
194.8330,-5.5510,-2.4465,0.6571,6.102
194.8430,-7.8415,-6.5582,1.0856,10.280
194.8500,-8.5976,-8.2430,1.0904,11.961
194.8600,-8.3653,-7.1959,0.9019,11.071
194.8680,-7.2119,-3.9918,-0.6319,8.267
194.8750,-6.6961,0.8945,-2.4861,7.199
194.8830,-6.5166,0.9027,-2.3941,7.001
194.8920,-8.4412,4.7318,-3.4952,10.289
194.9000,-10.8015,5.8329,-2.2699,12.484
194.9120,-9.7648,4.0321,-0.8630,10.600
194.9170,-6.3483,1.5657,-0.6144,6.567
194.9290,-3.5547,-0.3877,-0.7594,3.656
194.9370,-2.2146,-1.1811,-0.1778,2.516
194.9430,-2.1610,-1.1691,-0.1661,2.463
194.9500,-1.9251,-1.0782,0.9370,2.397
194.9590,-1.2252,-0.4979,1.8611,2.283
194.9670,-0.1235,0.1610,2.1458,2.155
194.9870,0.8149,0.6844,0.8790,1.380
194.9880,2.0034,0.8961,-1.3915,2.599
194.9930,2.0722,0.9127,-1.3453,2.634
195.0020,3.3969,0.9100,-2.8305,4.514
195.0090,4.1802,0.6328,-3.1123,5.250
195.0200,3.7379,0.3354,-2.8037,4.685
195.0260,2.4589,-0.1964,-2.4061,3.446
195.0350,1.3003,-0.8640,-1.9943,2.533
195.0430,0.5506,-1.6091,-1.2546,2.113
195.0510,0.6365,-1.5905,-1.2623,2.128
195.0590,0.6591,-1.8461,-0.4285,2.006
195.0680,0.8777,-1.5126,-0.0638,1.750
195.0760,1.1770,-0.8252,-0.3022,1.469
195.0840,1.0675,-0.2546,-0.6937,1.298
195.0930,1.1192,0.1206,-0.6950,1.323
195.1020,1.3458,0.2409,-1.0896,1.748
195.1090,1.4307,0.2630,-1.0915,1.819
195.1180,1.4357,0.0110,-1.4082,2.011
195.1270,1.0482,-0.2795,-0.9829,1.464
195.1350,0.7197,-0.3930,-0.6384,1.039
195.1440,0.5082,-0.3296,-0.6860,0.915
195.1520,0.3749,-0.2066,-0.6928,0.814
195.1610,0.4563,-0.1814,-0.6999,0.855
195.1680,0.3625,0.0208,-0.5131,0.629
195.1770,0.2118,0.3020,-0.3475,0.507
195.1850,0.2580,0.4856,0.0123,0.550
195.1940,0.3448,0.5134,0.2519,0.668
195.2020,0.5300,0.5619,-0.0961,0.778
195.2100,0.6954,0.6703,-0.5205,1.097
195.2190,0.7824,0.7014,-0.5318,1.178
195.2270,0.8698,0.7141,-0.8172,1.391
195.2360,0.8203,0.7275,-1.1431,1.584
195.2440,0.7704,0.6241,-1.5866,1.871
195.2530,0.8388,0.6197,-1.6398,1.943
195.2610,0.9665,0.6748,-1.2652,1.729
195.2690,1.0956,0.7703,-1.1876,1.790
195.2780,1.1866,0.8083,-1.2098,1.877
195.2860,1.3763,0.8480,-1.0948,1.952
195.2960,1.4707,0.9293,-0.9614,1.988
195.3030,1.5271,1.0905,-0.9469,2.102
195.3110,1.6830,1.5471,-0.8552,2.441
195.3200,1.9976,2.2010,-0.5496,3.023
195.3280,2.1565,2.3859,-0.3842,3.239
195.3370,2.2580,2.4353,-0.4179,3.347
195.3460,2.4190,2.4473,-0.4731,3.473
195.3530,2.6020,2.5017,-0.4324,3.635
195.3610,2.5919,2.6573,-0.1592,3.715
195.3710,2.5261,2.7963,-0.2622,3.777
195.3800,2.3646,2.9381,-0.2122,3.777
195.3870,2.4782,3.0038,-0.2628,3.903
195.3950,2.2608,3.0337,-0.2376,3.791
195.4030,2.2031,3.1064,-0.7676,3.885
195.4120,2.6148,3.4347,-1.0902,4.452
195.4200,2.9679,4.1370,-1.5583,5.325
195.4280,4.0059,5.2517,-2.4050,7.029
195.4370,5.5892,6.5820,-2.6876,9.043
195.4460,5.7014,6.6603,-2.7768,9.196
195.4540,7.1642,7.8191,-3.0227,11.027
195.4650,8.4685,8.3937,-3.5776,12.449
195.4700,8.7554,8.3867,-3.8167,12.711
195.4810,8.3026,8.2710,-3.7809,12.314
195.4870,6.7032,8.4415,-3.6459,11.379
195.4960,3.8580,8.6599,-4.0406,10.306
195.5040,3.9983,8.7908,-4.1231,10.501
195.5130,0.8310,9.0073,-6.3745,11.066
195.5210,-0.5577,8.8877,-6.5732,11.068
195.5310,-0.3797,8.0854,-4.5620,9.291
195.5380,0.1460,6.5599,-4.3564,7.876
195.5520,1.8373,4.9540,-5.0437,7.305
195.5560,4.7512,3.8338,-3.7099,7.144
195.5630,4.7626,3.8712,-3.8780,7.260
195.5720,7.4503,2.7724,-1.9760,8.191
195.5830,8.0661,0.7519,-1.4637,8.232
195.5880,7.4140,-0.5345,-0.7029,7.466
195.5980,7.4844,-0.7695,0.1330,7.525
195.6050,7.3268,-0.1850,0.0237,7.329
195.6140,7.3156,-0.1746,0.0032,7.318
195.6230,6.7914,0.4473,-0.7796,6.851
195.6300,5.3611,0.4663,-0.7539,5.434
195.6390,4.0218,0.2738,-0.6736,4.087
195.6470,3.4160,-0.1911,-0.8555,3.527
195.6580,3.5961,-0.5022,-1.1014,3.794
195.6640,3.9387,-0.6709,-0.8116,4.077
195.6770,3.8579,-0.7720,-0.7159,3.999
195.6800,3.9614,-0.8434,-0.3062,4.062
195.6900,3.7403,-0.8250,-0.0137,3.830
195.6970,3.3883,-0.7585,-0.0504,3.473
195.7060,2.9467,-0.5623,-0.1033,3.002
195.7140,2.7662,-0.2956,-0.2928,2.797
195.7220,2.7293,-0.0741,-0.4833,2.773
195.7310,2.5615,-0.2298,-0.3806,2.600
195.7390,2.5339,-0.0392,-0.4752,2.578
195.7480,2.4747,0.1111,-0.4345,2.515
195.7560,2.3059,0.0849,-0.2565,2.322
195.7640,2.3406,0.1576,0.0197,2.346
195.7720,2.2072,0.0757,0.3167,2.231
195.7840,2.1190,0.0936,0.4788,2.174
195.7900,1.8637,-0.0600,0.5842,1.954
195.7990,1.6944,-0.1303,0.8310,1.892
195.8060,1.7683,-0.3316,1.2360,2.183
195.8150,1.5590,-0.1524,1.2908,2.030
195.8230,1.0278,0.0351,0.9184,1.379
195.8310,0.5050,0.3281,0.5496,0.815
195.8390,0.1879,0.2185,0.6689,0.728
195.8490,-0.2555,0.5882,0.5847,0.868
195.8560,-0.7238,0.9088,0.4918,1.262
195.8650,-1.2140,1.0638,0.3892,1.660
195.8730,-1.6883,1.1898,0.4336,2.110
195.8820,-2.0662,1.2481,0.2913,2.431
195.8900,-2.4264,1.1996,0.0608,2.707
195.8990,-2.7626,1.1627,0.1156,3.000
195.9070,-2.9221,1.2146,0.0826,3.166
195.9160,-2.5249,1.7465,0.0985,3.072
195.9230,-2.5629,2.0726,-0.0083,3.296
195.9360,-2.8599,2.2894,0.1735,3.667
195.9410,-2.7160,2.6500,0.0339,3.795
195.9490,-2.2161,3.4667,0.0032,4.114
195.9570,-2.4849,3.4842,0.0029,4.280
195.9660,-3.9821,3.3284,-0.0645,5.190
195.9740,-5.6215,2.3531,0.3059,6.102
195.9820,-6.6550,1.2270,0.7986,6.814
195.9910,-6.8685,0.7933,0.8694,6.969
195.9990,-7.2571,0.5616,0.8372,7.327
196.0080,-6.7163,0.7646,0.9975,6.833
196.0160,-6.9255,0.8109,0.9320,7.035
196.0240,-6.6186,0.6575,0.2883,6.657
196.0330,-6.8741,-0.0091,0.4608,6.890
196.0410,-5.5399,-0.0079,0.4460,5.558
196.0500,-4.6645,-0.1854,0.0077,4.668
196.0580,-4.5496,-0.4862,-0.2625,4.583
196.0660,-4.6405,-0.4621,-0.3802,4.679
196.0760,-5.1128,-0.7992,-0.6365,5.214
196.0880,-6.0446,-1.0269,-1.1616,6.240
196.0910,-6.9004,-1.2848,-1.8289,7.253
196.1000,-7.4364,-1.5101,-2.2429,7.913
196.1080,-7.7335,-1.7221,-2.5228,8.315
196.1170,-7.8514,-1.9990,-2.5534,8.495
196.1250,-7.7522,-2.0269,-2.5907,8.421
196.1330,-7.8812,-2.2967,-2.8469,8.689
196.1420,-7.9336,-2.3736,-2.9102,8.778
196.1510,-7.9689,-1.9048,-2.4712,8.558
196.1590,-7.1670,-0.1267,-3.3909,7.930
196.1670,-5.1181,1.9266,-5.3303,7.637
196.1750,-2.2624,6.0430,-9.1948,11.233
196.1840,-2.1766,6.0164,-9.0824,11.110
196.1920,7.8049,11.2821,1.3570,13.786
196.2010,9.1314,12.1629,9.8601,18.126
196.2090,5.9034,9.6192,2.0043,11.463
196.2180,2.7782,7.2142,-4.3517,8.871
196.2260,0.7542,5.4055,-3.4566,6.460
196.2340,0.9790,5.3611,-3.4137,6.431
196.2440,-2.0687,2.6152,-0.5944,3.387
196.2510,-5.8745,-0.6875,-0.0456,5.915
196.2610,-8.1529,-3.5429,-0.1651,8.891
196.2680,-8.8593,-5.3853,-0.2432,10.371
196.2760,-8.2629,-5.7496,-1.1073,10.127
196.2850,-7.3369,-4.1705,-2.4388,8.785
196.2930,-7.1962,-4.1562,-2.3593,8.639
196.3010,-6.5546,-1.7117,-3.6037,7.673
196.3100,-7.0347,1.1026,-5.1786,8.805
196.3180,-8.3961,3.6000,-6.1131,10.992
196.3270,-7.1481,3.5268,-4.8015,9.305
196.3350,-4.1880,2.0593,-1.9429,5.055
196.3430,-1.8792,0.1791,0.3887,1.927
196.3520,-1.7882,0.1804,0.3514,1.831
196.3620,-0.3857,-1.1670,1.8276,2.202
196.3690,0.3867,-1.5497,2.4346,2.912
196.3770,0.7463,-1.0676,1.6667,2.115
196.3870,0.9518,-0.2703,0.7192,1.223
196.3940,1.0613,0.2343,-0.0016,1.087
196.4030,1.1119,0.2495,-0.4267,1.217
196.4100,1.2001,0.2650,-0.4031,1.293
196.4190,1.2252,-0.0327,-0.5385,1.339
196.4270,1.1491,-0.3494,-0.4795,1.293
196.4360,0.9555,-0.6258,-0.7353,1.358
196.4440,0.4887,-0.9204,-1.2655,1.639
196.4530,0.0245,-1.0572,-1.5815,1.902
196.4600,0.1113,-1.0365,-1.5683,1.883
196.4690,-0.2712,-1.0746,-1.4240,1.805
196.4770,-0.0469,-0.8193,-0.7968,1.144
196.4860,0.4920,-0.5246,-0.4479,0.847
196.4940,1.0504,-0.3075,-0.0598,1.096
196.5080,1.6464,-0.0505,0.3895,1.693
196.5110,2.1236,0.1290,0.5667,2.202
196.5210,2.2081,0.1530,0.5720,2.286
196.5280,2.2328,0.2373,0.3486,2.272
196.5360,1.9646,0.1860,-0.2625,1.991
196.5450,1.3843,0.0383,-0.8319,1.616
196.5530,0.7269,-0.0499,-0.7954,1.079
196.5620,0.1693,-0.0983,-0.8808,0.902
196.5700,0.0450,-0.0090,-1.0879,1.089
196.5790,0.1376,0.0223,-1.0829,1.092
196.5870,0.1725,0.1717,-0.9845,1.014
196.5970,0.5604,0.3801,-0.5968,0.903
196.6030,1.1238,0.5108,-0.6220,1.382
196.6120,1.5679,0.5445,-1.0165,1.946
196.6200,1.4823,0.4034,-1.1531,1.921
196.6340,1.0252,0.2641,-1.1503,1.563
196.6380,1.1163,0.3022,-1.1469,1.629
196.6550,0.4227,0.2424,-1.1061,1.209
196.6570,-0.2112,0.3789,-0.8329,0.939
196.6620,-0.5694,0.6333,-0.6023,1.043
196.6700,-0.5176,0.9652,-0.4147,1.171
196.6790,0.1803,1.4930,-0.3276,1.539
196.6870,0.2709,1.5314,-0.3411,1.592
196.6960,1.1877,1.8270,-0.6316,2.269
196.7060,2.0863,2.1054,-0.9015,3.098
196.7120,2.8686,2.2493,-0.9747,3.773
196.7210,3.3003,2.6112,-1.2441,4.388
196.7300,3.1484,3.0545,-1.2208,4.553
196.7380,3.1405,3.7369,-0.6518,4.925
196.7460,3.2539,3.7949,-0.6764,5.044
196.7550,3.2922,4.2662,-0.2030,5.393
196.7630,3.4729,4.7410,-0.0132,5.877
196.7720,3.8543,4.8091,-0.0441,6.163
196.7810,4.3195,4.6084,0.0303,6.316
196.7880,4.6707,4.5894,-0.1809,6.551
196.7970,5.0452,4.6940,-0.6716,6.924
196.8050,5.1878,4.7856,-0.7548,7.098
196.8130,5.5090,5.0009,-1.4092,7.573
196.8220,5.7359,5.5565,-2.2438,8.295
196.8300,6.2959,6.7629,-2.8850,9.680
196.8380,7.2239,8.7146,-3.6776,11.902
196.8470,8.2068,10.5689,-4.1705,14.016
196.8580,8.3248,11.8951,-4.7439,15.274
196.8650,8.4590,12.0073,-4.8385,15.464
196.8720,8.8040,12.1404,-4.9697,15.799
196.8820,7.6815,11.4784,-4.2792,14.459
196.8890,4.7421,10.8466,-3.8397,12.445
196.9000,1.9681,10.6984,-4.1832,11.655
196.9060,0.7212,9.9280,-3.6108,10.589
196.9140,0.8550,10.0752,-3.7419,10.782
196.9220,1.2438,8.7406,-3.6989,9.572
196.9350,2.8264,6.8437,-3.9222,8.379
196.9390,4.9926,4.2248,-4.5220,7.951
196.9480,7.0161,1.5664,-4.5956,8.532
196.9570,8.2022,0.4846,-3.6575,8.994
196.9930,6.0368,-0.1257,-1.4885,6.219
196.9950,1.6952,-1.6595,-1.1147,2.621
197.0060,2.4129,-1.8198,-0.3759,3.045
197.0150,3.4469,-2.0436,-0.4825,4.036
197.0240,4.0924,-2.2310,-0.2421,4.667
197.0310,4.0128,-2.3292,-0.2180,4.645
197.0410,4.0173,-2.1916,-0.0216,4.576
197.0480,3.8722,-2.1281,-0.3190,4.430
197.0600,3.6766,-2.2524,-0.4853,4.339
197.0680,3.3909,-2.5621,0.0210,4.250
197.0750,3.0913,-2.8809,0.6463,4.275
197.0820,2.9365,-3.0292,0.9420,4.323
197.0950,2.7693,-3.2026,1.0325,4.358
197.1000,2.7653,-3.1064,1.0769,4.296
197.1070,3.0003,-2.8589,0.9577,4.253
197.1160,3.2934,-2.5400,0.8701,4.249
197.1250,3.4919,-2.1634,0.6151,4.154
197.1320,3.4981,-1.8055,0.2312,3.943
197.1410,3.2345,-1.9929,0.3832,3.818
197.1570,3.0569,-1.5662,0.1271,3.437
197.1590,2.5905,-1.1538,-0.0505,2.836
197.1670,1.9170,-0.6943,-0.3092,2.062
197.1740,1.3312,-0.3828,-0.4931,1.470
197.1840,0.7558,-0.0226,-0.2151,0.786
197.1920,0.2701,0.2105,0.1487,0.373
197.1990,-0.0680,0.0817,0.2672,0.288
197.2070,-0.4729,0.2389,0.2812,0.600
197.2440,-0.7478,0.2711,0.5060,0.943
197.2460,-0.8545,0.3551,0.4926,1.048
197.2470,-0.8098,0.5704,0.4560,1.090
197.2480,-0.5743,0.7992,0.6309,1.169
197.2640,-0.3455,1.0612,0.6840,1.309
197.2650,-0.7286,1.0241,0.7724,1.475
197.2720,-0.4842,1.6289,0.7793,1.870
197.2760,-0.1150,2.6393,0.4891,2.687
197.2840,-0.5151,3.0941,0.3712,3.159
197.2940,-0.7621,3.7360,0.2274,3.820
197.3000,-0.6191,4.5031,-0.6714,4.595
197.3080,-0.9307,4.5319,-0.6220,4.668
197.3170,-1.5581,4.4677,-0.4304,4.751
197.3270,-2.7432,3.6237,0.4045,4.563
197.3340,-2.9301,2.8641,1.1580,4.258
197.3470,-2.8422,2.2874,1.1503,3.825
197.3500,-3.5704,2.0096,1.5386,4.376
197.3590,-4.8671,1.2643,2.0916,5.446
197.3670,-5.1068,1.3232,2.0255,5.651
197.3770,-6.1139,0.9324,2.5588,6.693
197.3840,-6.3350,1.0705,2.0561,6.746
197.3920,-5.8152,1.1883,1.7716,6.194
197.4010,-4.8104,1.1274,1.2887,5.106
197.4090,-4.0041,0.9837,0.5085,4.154
197.4170,-3.8608,0.8718,-0.1963,3.963
197.4270,-3.9573,0.9033,-0.2763,4.068
197.4340,-4.3602,0.5716,-0.6926,4.452
197.4420,-5.1295,0.1914,-0.9123,5.214
197.4510,-5.9915,-0.2950,-1.1651,6.111
197.4590,-6.8501,-0.7101,-1.2902,7.007
197.4680,-7.6022,-1.0954,-1.4989,7.826
197.4810,-8.0210,-1.2909,-1.7918,8.319
197.4850,-7.9521,-1.3157,-1.8178,8.263
197.4930,-8.1009,-1.5423,-1.6583,8.411
197.5020,-8.0346,-1.8534,-1.5899,8.397
197.5100,-8.0801,-2.1526,-1.2595,8.456
197.5190,-7.9692,-1.5754,-1.8039,8.321
197.5270,-5.7540,1.3488,-1.9857,6.235
197.5350,-5.5904,1.2930,-1.9604,6.064
197.5430,-6.0621,0.7865,-3.6774,7.134
197.5520,-3.8131,5.3679,-10.4751,12.373
197.5600,2.7622,10.6422,-2.9612,11.387
197.5690,4.8882,13.7799,9.9914,17.709
197.5780,3.7749,13.0015,6.0740,14.838
197.5860,0.1373,10.1808,-3.9159,10.909
197.5940,0.3913,10.1108,-3.8267,10.818
197.6030,-1.5127,7.4426,-4.8339,9.003
197.6110,-4.8030,1.8207,-1.1435,5.262
197.6200,-8.0166,-4.0220,-0.6364,8.992
197.6280,-9.4392,-8.2364,0.2189,12.529
197.6360,-9.7789,-9.1204,0.6067,13.386
197.6470,-9.2142,-6.7621,-1.1233,11.484
197.6530,-9.0704,-6.7499,-1.0734,11.357
197.6620,-7.5121,-2.1330,-2.7433,8.277
197.6700,-7.7488,2.1248,-3.1097,8.616
197.6790,-9.4678,4.8486,-3.8969,11.328
197.6870,-9.2529,4.2800,-5.4220,11.547
197.6950,-5.7517,2.3625,-4.4516,7.647
197.7030,-2.3935,0.5421,-2.0051,3.169
197.7120,-2.2968,0.5408,-2.0228,3.108
197.7200,-0.9594,-0.6156,-0.1118,1.145
197.7290,-0.7330,-0.9056,0.9992,1.535
197.7380,-0.4707,-0.7814,1.5102,1.764
197.7450,-0.0574,-0.4792,1.7156,1.782
197.7530,0.2528,-0.1753,1.3034,1.339
197.7660,0.3451,-0.1633,1.3131,1.367
197.7700,0.6727,0.2229,0.3522,0.791
197.7790,0.8698,0.4538,-0.7824,1.255
197.7890,0.3111,0.1375,-1.5082,1.546
197.7950,-0.1473,-0.1779,-1.0257,1.051
197.8050,-0.3545,-0.5332,0.0520,0.642
197.8120,-0.0764,-0.7906,-0.1122,0.802
197.8220,0.0231,-0.7723,-0.1174,0.782
197.8290,0.2975,-0.7525,-0.9993,1.286
197.8410,0.8820,-0.5556,-1.4659,1.799
197.8460,1.2494,-0.3589,-1.2888,1.831
197.8550,1.5971,-0.4362,-1.2337,2.065
197.8640,1.8474,-0.4930,-0.9850,2.151
197.8710,1.9232,-0.5679,-1.3839,2.436
197.8800,2.0175,-0.5439,-1.3903,2.510
197.8940,1.8371,-0.3626,-1.3386,2.302
197.8960,1.4995,-0.2008,-0.7607,1.693
197.9040,1.1049,0.0009,-0.4980,1.212
197.9130,0.7903,0.2234,-0.5083,0.966
197.9210,0.5552,0.4664,-0.4200,0.838
197.9310,0.6540,0.5143,-0.4894,0.965
197.9380,0.6550,0.5436,-0.5015,0.988
197.9470,0.4423,0.5156,-0.7886,1.041
197.9540,0.3087,0.3911,-0.9386,1.063
197.9650,0.1168,0.2875,-0.9915,1.039
197.9710,-0.0156,0.1658,-1.1628,1.175
197.9810,0.1048,0.1231,-1.2172,1.228
197.9880,0.2033,0.1590,-1.2333,1.260
197.9970,0.3014,0.2546,-1.3285,1.386
198.0050,0.2626,0.3708,-1.4825,1.551
198.0140,0.2237,0.5076,-1.3037,1.417
198.0220,0.1453,0.7427,-1.0486,1.293
198.0360,0.2411,0.9968,-0.7962,1.298
198.0390,0.5710,1.3295,-0.5261,1.540
198.0470,0.6658,1.3690,-0.5530,1.620
198.0550,1.2112,1.6052,-0.4848,2.068
198.0640,2.1093,1.9013,-0.3023,2.856
198.0720,2.9711,2.1805,-0.1440,3.688
198.0820,3.5420,2.4038,-0.0878,4.282
198.1050,3.8023,2.7089,-0.3640,4.683
198.1070,3.6351,3.0762,-0.5797,4.797
198.1080,3.7464,3.1340,-0.6188,4.923
198.1150,3.4310,3.5291,-0.9520,5.013
198.1230,3.1962,3.8674,-0.9952,5.115
198.1310,3.1013,3.9734,-0.8895,5.118
198.1400,3.0475,3.9649,-1.0059,5.101
198.1480,3.3891,3.7263,-1.2667,5.194
198.1570,3.5166,3.8047,-1.3443,5.353
198.1640,4.3885,3.6512,-1.6704,5.948
198.1730,5.1434,3.5616,-1.8324,6.519
198.1820,5.5862,4.0261,-2.3762,7.284
198.1900,6.0293,5.0242,-3.5679,8.621
198.1980,7.1731,6.7278,-4.1097,10.659
198.2070,8.4269,8.6635,-4.3011,12.828
198.2150,8.5418,8.7596,-4.4227,13.010
198.2240,8.2486,10.0973,-4.2957,13.728
198.2320,6.3033,10.6659,-4.7903,13.283
198.2410,4.2158,10.9765,-5.8416,13.129
198.2490,2.5204,10.8801,-6.2099,12.779
198.2580,1.2255,9.8789,-5.8588,11.551
198.2680,0.8136,8.2423,-5.1959,9.777
198.2740,0.9115,8.3581,-5.3643,9.973
198.2830,1.4186,6.8318,-5.5261,8.901
198.2900,2.6526,5.3140,-5.4015,8.028
198.3010,4.2978,4.2148,-4.9034,7.764
198.3090,6.0026,3.6717,-3.2331,7.744
198.3170,5.3320,2.3868,-2.8595,6.504
198.3240,4.5915,0.7581,-2.4785,5.273
198.3330,4.6192,0.8303,-2.5625,5.347
198.3410,4.7292,-0.2809,-0.6559,4.783
198.3490,6.2704,-0.8911,-0.0775,6.334
198.3580,6.0022,-1.1254,-0.7223,6.149
198.3660,4.7328,-1.3191,-0.8512,4.986
198.3740,3.7931,-1.3133,-0.6554,4.067
198.3830,3.7646,-1.3642,-0.5589,4.043
198.3910,3.2742,-1.3928,-0.5247,3.597
198.3990,2.9092,-1.4944,-0.4239,3.298
198.4090,2.7215,-1.7536,-0.1794,3.243
198.4160,2.6748,-1.9680,-0.2456,3.330
198.4250,2.7100,-1.9791,-0.3307,3.372
198.4330,2.4750,-1.8243,-0.4175,3.103
198.4460,2.3425,-1.9721,-0.2924,3.076
198.4510,2.2902,-1.7766,-0.2921,2.913
198.4580,2.1084,-1.6232,-0.2419,2.672
198.4670,1.9334,-1.5122,-0.1009,2.457
198.4760,1.7062,-1.5604,0.1515,2.317
198.4840,1.5855,-1.5302,0.3786,2.236
198.4920,1.5648,-1.4846,0.4468,2.203
198.5000,1.3360,-1.6531,0.5346,2.192
198.5090,1.5229,-1.5668,0.6065,2.268
198.5170,1.7563,-1.2418,0.5449,2.219
198.5250,2.0744,-0.9718,0.6844,2.391
198.5340,2.2242,-0.8331,0.7890,2.503
198.5420,2.2479,-0.7446,0.8613,2.520
198.5500,2.4986,-0.5485,0.6309,2.635
198.5590,2.1972,-0.6733,0.7603,2.421
198.5710,1.6158,-0.3760,0.5999,1.764
198.5810,0.8328,-0.4992,0.5357,1.109
198.5890,0.2961,-0.1818,0.2150,0.409
198.5930,-0.3070,0.2631,-0.3024,0.505
198.6010,-0.7167,0.8564,-0.7655,1.354
198.6090,-1.0509,0.7945,-0.6476,1.468
198.6170,-1.5211,1.5278,-1.1063,2.423
198.6260,-1.9501,2.0359,-1.2232,3.073
198.6350,-2.3768,2.0250,-1.1162,3.316
198.6420,-2.4684,1.8286,-0.6873,3.148
198.6510,-2.1289,2.0342,-0.4631,2.981
198.6590,-2.0197,2.1913,-0.4202,3.010
198.6680,-2.3293,2.2017,-0.3605,3.225
198.6760,-2.5467,2.1425,0.1062,3.330
198.6850,-1.9168,2.7564,-0.0032,3.357
198.6930,-1.3727,3.3359,-0.2950,3.619
198.7020,-2.5498,2.8219,0.1503,3.806
198.7200,-3.5393,1.8222,0.8552,4.072
198.7260,-4.1367,0.8860,1.2658,4.416
198.7280,-4.3859,0.9351,1.2509,4.656
198.7410,-4.4889,1.0272,1.4079,4.815
198.7440,-5.6726,0.8080,1.0147,5.819
198.7520,-6.5659,0.2772,1.2652,6.692
198.7610,-6.6214,0.0989,1.6833,6.833
198.7690,-6.3690,-0.0216,1.5668,6.559
198.7770,-5.6502,-0.2223,1.5670,5.868
198.7870,-5.7929,-0.1734,1.5232,5.992
198.7940,-5.1190,-0.3835,1.5688,5.368
198.8020,-4.4839,-0.2095,0.7644,4.553
198.8110,-4.6111,-0.1426,0.2082,4.618
198.8190,-5.3015,-0.1837,-0.0607,5.305
198.8280,-6.1630,-0.4112,-0.0038,6.177
198.8360,-6.1781,-0.4124,-0.0853,6.192
198.8460,-6.8888,-0.6590,-0.1007,6.921
198.8530,-7.2248,-0.8533,-0.0478,7.275
198.8610,-7.4611,-0.9363,-0.1605,7.521
198.8710,-7.6177,-1.1036,-0.3400,7.705
198.8780,-7.6554,-1.1201,-0.3719,7.746
198.8880,-7.5682,-1.0268,-0.1182,7.638
198.8950,-7.4226,-1.0748,-0.1301,7.501
198.9040,-6.6988,-0.4579,-1.1535,6.813
198.9120,-4.7391,0.7888,-4.2805,6.435
198.9200,-3.3539,3.5305,-11.1693,12.185
198.9350,2.4517,11.0023,-7.3509,13.457
198.9370,5.9806,14.4472,7.6945,17.427
198.9470,5.0744,12.7871,6.5520,15.238
198.9540,5.2586,12.7065,6.5131,15.216
198.9620,1.8736,9.1701,-1.1045,9.424
198.9710,-0.8014,6.5483,-5.4283,8.543
198.9790,-3.0568,3.4227,-2.5621,5.256
198.9880,-6.5658,-1.6380,-0.4748,6.784
198.9950,-9.4325,-6.0579,0.0569,11.210
199.0040,-9.2190,-6.0742,0.0033,11.040
199.0120,-9.8594,-7.9781,0.9253,12.717
199.0210,-8.9986,-6.8944,0.8186,11.366
199.0310,-7.2501,-3.4187,-1.0339,8.082
199.0380,-6.9059,0.8390,-3.1407,7.633
199.0470,-9.5560,4.5267,-4.5545,11.513
199.0540,-11.9751,5.3914,-4.1171,13.763
199.0690,-11.7841,5.3900,-4.0725,13.583
199.0760,-7.8898,3.0924,-2.8140,8.929
199.0800,-3.4863,0.5805,-1.3037,3.767
199.0890,-1.3331,-1.0254,-0.3307,1.714
199.0980,-0.8336,-1.5873,0.6678,1.913
199.1100,-0.4110,-1.2841,1.3394,1.900
199.1130,0.2999,-0.4711,1.2501,1.369
199.1260,0.3994,-0.4600,1.2482,1.389
199.1290,1.1843,0.1604,0.7464,1.409
199.1390,1.9113,0.2145,-0.3547,1.956
199.1470,2.5195,-0.1021,-1.0409,2.728
199.1550,2.6576,-0.4760,-0.7113,2.792
199.1630,1.9535,-0.6926,-0.6621,2.176
199.1710,1.0153,-0.7322,-1.1056,1.670
199.1810,1.1150,-0.7118,-1.0961,1.718
199.1890,0.6076,-0.9454,-1.0508,1.539
199.1970,0.0430,-1.2960,-0.5818,1.421
199.2060,0.1632,-1.2538,-0.5454,1.377
199.2130,0.1651,-1.0344,-0.6452,1.230
199.2220,0.5009,-0.6574,-0.7244,1.099
199.2300,0.6015,-0.6323,-0.7251,1.135
199.2390,0.8196,-0.3320,-0.6283,1.085
199.2470,1.3499,-0.2465,-1.0396,1.722
199.2550,1.5849,-0.0623,-0.9999,1.875
199.2630,1.2922,0.0834,-0.8842,1.568
199.2760,0.9443,0.1714,-0.6352,1.151
199.2820,0.5984,0.2800,-0.7220,0.979
199.2900,0.7038,0.3115,-0.7308,1.061
199.2980,0.6322,0.4418,-0.7395,1.069
199.3060,0.5016,0.5336,-0.8674,1.135
199.3140,0.3319,0.5282,-1.0951,1.260
199.3230,0.1028,0.3669,-1.0691,1.135
199.3310,0.0682,0.2651,-0.8293,0.873
199.3400,0.0712,0.0464,-0.5723,0.579
199.3480,0.1721,0.0838,-0.5902,0.620
199.3560,0.2329,0.0634,-0.5102,0.564
199.3650,0.2930,0.1420,-0.7244,0.794
199.3730,0.3721,0.3781,-0.8399,0.993
199.3820,0.4304,0.5950,-1.1114,1.332
199.3900,0.4680,0.7929,-1.3422,1.628
199.4070,0.4265,1.0109,-1.1220,1.569
199.4080,0.5215,1.0529,-1.1394,1.637
199.4150,0.3243,1.3902,-0.8847,1.679
199.4240,0.1482,1.7479,-0.7699,1.916
199.4320,0.5786,1.9879,-0.5609,2.145
199.4410,1.3807,2.2677,-0.2585,2.667
199.4490,2.1250,2.5882,0.0581,3.349
199.4570,2.2248,2.6369,0.0183,3.450
199.4660,3.0123,2.9039,0.2120,4.189
199.4740,3.5072,3.1541,0.1108,4.718
199.4820,3.6911,3.4078,-0.0880,5.024
199.4930,3.6638,3.5878,-0.2857,5.136
199.4990,3.6204,3.7324,-0.6232,5.237
199.5090,3.6381,3.8411,-0.7876,5.349
199.5160,3.7565,3.9147,-0.8382,5.490
199.5240,3.7017,3.9338,-1.0331,5.500
199.5330,3.5333,4.0358,-1.1799,5.492
199.5410,3.3484,3.9077,-1.2575,5.297
199.5490,3.3411,3.6858,-1.4036,5.169
199.5650,3.2761,3.6645,-1.4443,5.123
199.5660,3.1720,4.0971,-1.6176,5.428
199.5750,3.3000,4.1981,-1.7480,5.619
199.5840,3.7555,5.2397,-2.6487,6.970
199.5930,4.8275,6.9618,-3.5527,9.187
199.6000,6.1410,9.2632,-4.5778,12.020
199.6090,7.7317,11.2191,-4.9143,14.484
199.6170,8.9809,12.2310,-4.6425,15.868
199.6250,7.4953,12.0211,-4.6863,14.921
199.6340,7.5994,12.1318,-4.8135,15.103
199.6420,4.5475,11.4415,-6.6592,13.998
199.6520,2.4187,10.3835,-6.5546,12.515
199.6590,1.4903,8.3754,-5.3394,10.044
199.6680,1.9918,6.2752,-6.0099,8.914
199.6760,3.8781,4.2516,-6.7861,8.898
199.6850,3.9190,4.3205,-6.8644,9.008
199.6930,6.2920,2.4112,-6.4442,9.324
199.7080,8.7261,1.9010,-5.7134,10.602
199.7100,8.4351,1.6912,-2.3195,8.910
199.7220,4.5176,0.6807,-2.2459,5.091
199.7250,1.0904,0.1340,-3.7846,3.941
199.7350,0.8913,-0.2360,-2.9112,3.054
199.7420,0.8969,-0.2156,-2.9420,3.083
199.7510,1.4034,-0.6774,-1.4277,2.114
199.7590,2.0256,-1.3601,-1.7595,3.008
199.7690,2.9996,-1.7740,-1.8095,3.927
199.7760,3.6831,-1.6596,-0.9077,4.140
199.7840,3.7442,-1.4083,-0.3865,4.019
199.7940,3.6604,-1.4425,-0.3398,3.949
199.8010,3.5517,-1.5632,-0.3331,3.895
199.8110,3.7090,-1.9286,0.1794,4.184
199.8180,3.9363,-2.3406,0.7653,4.643
199.8330,4.2106,-2.3538,0.9839,4.923
199.8350,4.3403,-2.0216,0.7992,4.854
199.8470,4.1690,-1.4995,0.4268,4.451
199.8520,3.6968,-0.8049,0.0582,3.784
199.8610,3.5908,-0.9715,0.2139,3.726
199.8680,3.1016,-0.2775,-0.2057,3.121
199.8770,2.7388,0.1620,-0.3469,2.765
199.8850,2.3834,0.3871,-0.4109,2.449
199.8940,2.0741,0.4966,-0.5346,2.199
199.9020,1.5174,0.6090,-0.6195,1.748
199.9110,1.2826,0.4520,-0.4557,1.434
199.9190,0.7231,0.5157,-0.5143,1.026
199.9270,0.1935,0.4683,-0.4433,0.673
199.9370,-0.2480,0.3881,-0.2042,0.504
199.9450,-0.5994,0.1786,0.0449,0.627
199.9590,-0.7657,-0.1217,0.2472,0.814
199.9610,-0.6664,-0.4330,0.6776,1.044
199.9850,-0.9690,-0.5398,0.7908,1.362
199.9860,-0.7318,-0.6763,1.0390,1.440
199.9870,-0.5432,-0.5872,1.2285,1.466
199.9950,-0.4566,-0.2515,1.1240,1.239
200.0040,-0.4144,0.1933,0.9426,1.048
200.0100,-0.3956,0.7081,0.6639,1.048
200.0200,-0.5922,1.0776,0.4785,1.319
200.0280,-0.9252,1.0469,0.5803,1.513
200.0370,-1.2571,1.4581,0.3601,1.959
200.0450,-1.4467,1.8007,0.2088,2.319
200.0530,-1.7644,1.7808,0.2440,2.519
200.0610,-2.1309,1.4953,0.3254,2.623
200.0700,-2.2732,1.3746,0.4739,2.698
200.0780,-2.5647,1.3983,0.5145,2.966
200.0970,-2.3580,1.7412,0.5451,2.981
200.0980,-2.7591,1.7354,0.3322,3.276
200.1030,-3.3016,1.7522,0.3443,3.754
200.1120,-4.2047,1.5563,0.3462,4.497
200.1200,-5.4519,1.1680,0.2016,5.579
200.1310,-5.8308,1.2729,0.2839,5.975
200.1370,-6.0487,1.3223,0.2616,6.197
200.1460,-6.4340,1.0405,0.0555,6.518
200.1540,-6.9056,0.5450,0.1579,6.929
200.1620,-6.6221,0.5990,0.4701,6.666
200.1710,-6.2691,0.7110,0.2277,6.313
200.1800,-5.8190,0.5255,0.4325,5.859
200.1880,-5.0628,0.2393,0.5702,5.100
200.1990,-5.1945,0.2822,0.5027,5.226
200.2040,-4.8188,0.0065,0.1965,4.823
200.2130,-4.8905,-0.2375,0.0448,4.896
200.2200,-5.3991,-0.4744,-0.3049,5.428
200.2410,-6.1357,-0.6033,-0.7710,6.213
200.2480,-6.9629,-0.7025,-1.4075,7.138
200.2490,-7.4895,-0.9088,-1.5657,7.705
200.2560,-7.4434,-0.9274,-1.6160,7.673
200.2640,-7.8562,-1.4853,-1.4587,8.127
200.2720,-8.0880,-2.0692,-0.9981,8.408
200.2800,-7.7508,-1.4051,-1.8408,8.089
200.2890,-4.7959,1.3701,-4.2045,6.523
200.2980,-4.3511,4.5686,-8.7608,10.796
200.3040,-4.1720,4.5104,-8.6621,10.620
200.3130,-2.8367,9.4094,-7.9662,12.651
200.3210,1.0082,13.8490,4.7559,14.677
200.3300,3.2064,15.1807,10.1773,18.556
200.3380,0.3887,11.5666,1.2060,11.636
200.3470,-3.9651,8.4150,-5.9907,11.064
200.3550,-6.2278,3.8140,-1.6026,7.477
200.3640,-5.9479,3.7640,-1.5754,7.213
200.3720,-7.5340,-1.9613,2.0064,8.040
200.3800,-8.7914,-6.9626,2.0250,11.396
200.3890,-8.7591,-9.2191,2.7212,13.005
200.4000,-8.0377,-8.2297,1.8319,11.649
200.4050,-6.0349,-4.9056,-1.0381,7.846
200.4160,-4.1863,-0.1531,-2.8545,5.069
200.4220,-3.9998,-0.1425,-2.7508,4.856
200.4320,-5.1291,3.7858,-4.2386,7.655
200.4390,-8.4370,5.5171,-5.3117,11.395
200.4480,-9.0476,3.9570,-5.0534,11.093
200.4560,-5.2811,1.6103,-2.7558,6.171
200.4650,-2.7448,-0.1515,-0.7904,2.860
200.4730,-2.0356,-1.2449,0.4964,2.437
200.4820,-1.9275,-1.2369,0.4765,2.339
200.4890,-1.9005,-1.5197,1.8949,3.084
200.4980,-1.5854,-1.0560,2.5750,3.203
200.5060,-0.5542,-0.3364,1.5244,1.657
200.5170,0.6445,0.0911,-0.6244,0.902
200.5230,1.6447,0.2263,-1.3132,2.117
200.5310,1.7288,0.2443,-1.2823,2.166
200.5410,1.8977,0.1641,-0.6556,2.014
200.5500,1.5004,-0.1119,-0.6048,1.622
200.5570,0.8282,-0.2302,-0.7701,1.154
200.5650,-0.1180,-0.4261,-1.0339,1.124
200.5750,-0.5927,-0.6603,-0.9667,1.312
200.5820,-0.5193,-0.7567,-1.0783,1.416
200.5910,-0.4279,-0.7356,-1.0751,1.371
200.5990,0.1700,-0.5971,-1.2501,1.396
200.6120,0.9420,-0.3603,-1.4639,1.778
200.6170,1.2253,-0.2599,-1.5410,1.986
200.6240,1.2763,-0.1586,-1.6992,2.131
200.6320,0.8207,-0.3110,-1.1361,1.436
200.6400,1.2260,-0.0323,-0.5172,1.331
200.6490,1.3117,-0.0089,-0.5241,1.413
200.6580,1.4736,0.1326,-0.4902,1.559
200.6660,1.0699,0.2167,-0.4758,1.191
200.6740,1.1172,0.2821,-0.5583,1.280
200.6820,1.0287,0.2314,-0.6989,1.265
200.6910,0.7065,0.1036,-0.6834,0.988
200.7000,0.7971,0.1335,-0.6896,1.062
200.7080,0.2226,0.1645,-0.9118,0.953
200.7170,-0.0195,0.1760,-1.0174,1.033
200.7250,-0.1454,0.2070,-1.0268,1.057
200.7330,-0.0945,0.1407,-0.9403,0.956
200.7420,-0.0044,0.0363,-1.1492,1.150
200.7500,0.2214,0.1285,-1.4154,1.438
200.7580,0.3101,0.1631,-1.4262,1.469
200.7670,0.5154,0.4135,-1.4374,1.582
200.7750,0.5843,0.5472,-1.3326,1.555
200.7900,0.6337,0.7009,-1.1908,1.520
200.7920,1.0561,1.0318,-0.6788,1.625
200.8020,1.3613,1.1871,-0.2872,1.829
200.8080,1.6687,1.2461,-0.1740,2.090
200.8170,1.7621,1.2872,-0.2003,2.191
200.8250,2.1312,1.5066,-0.0900,2.612
200.8330,2.3059,1.6299,-0.0982,2.826
200.8420,2.1886,1.7556,-0.3415,2.826
200.8510,2.0145,1.8443,-0.6824,2.815
200.8580,1.8419,2.0131,-0.7888,2.840
200.8670,1.7684,2.2031,-0.4467,2.860
200.8780,1.8725,2.2577,-0.4801,2.972
200.8840,1.8782,2.2744,-0.2801,2.963
200.8930,1.9426,2.1949,-0.3356,2.950
200.9020,2.2230,2.1962,-0.1381,3.128
200.9100,2.7605,2.1225,0.1322,3.485
200.9170,3.0646,2.1304,0.0840,3.733
200.9260,3.1768,2.2022,0.0327,3.866
200.9340,3.1753,2.4944,-0.0014,4.038
200.9500,2.9023,2.8100,-0.1561,4.043
200.9510,2.5344,3.0704,-0.5117,4.014
200.9640,2.3045,3.2357,-1.2603,4.168
200.9680,2.5834,3.4427,-2.0296,4.759
200.9770,3.3691,3.6116,-2.4130,5.497
200.9850,3.4849,3.7016,-2.4947,5.663
200.9930,4.2061,4.3216,-3.1957,6.825
201.0020,5.4119,5.2152,-3.8611,8.450
201.0100,6.8680,6.4615,-3.6308,10.105
201.0180,7.6948,7.4355,-3.6409,11.303
201.0270,7.1736,8.1425,-3.7497,11.481
201.0370,5.2137,8.8433,-3.6013,10.879
201.0430,5.3377,8.9675,-3.7044,11.074
201.0520,3.0736,9.9791,-4.5876,11.405
201.0600,1.0454,10.8154,-6.9701,12.909
201.0730,0.7096,11.4434,-8.1951,14.093
201.0830,1.8152,11.1618,-6.6848,13.136
201.0860,3.4438,10.2715,-4.3517,11.675
201.0940,4.6399,8.8965,-3.6600,10.680
201.1030,4.6640,8.9391,-3.8250,10.784
201.1110,6.1441,7.0898,-4.6379,10.465
201.1190,7.3375,5.7806,-5.1183,10.651
201.1270,8.5851,4.8851,-3.6775,10.540
201.1360,6.6521,3.3455,-3.0608,8.051
201.1440,4.1527,1.4781,-2.0316,4.854
201.1530,4.1848,1.5466,-2.0943,4.929
201.1600,3.8082,-0.0800,-0.8096,3.894
201.1690,3.9212,-1.4419,-0.5475,4.214
201.1790,3.8416,-2.1047,-0.5576,4.416
201.1860,3.6107,-2.1061,-0.7230,4.242
201.2010,3.6598,-1.5627,-0.5753,4.021
201.2070,3.7888,-1.0267,0.1761,3.929
201.2110,3.7094,-1.1332,0.2494,3.887
201.2200,3.6398,-1.1319,0.7006,3.876
201.2280,3.4234,-1.4728,0.7493,3.801
201.2360,3.0972,-1.8239,0.8284,3.689
201.2470,2.8747,-1.8137,0.8188,3.496
201.2530,2.8153,-1.4010,0.4652,3.179
201.2620,2.8612,-0.8569,0.0382,2.987
201.2700,2.6979,-1.0230,0.1615,2.890
201.2790,2.8531,-0.5668,0.0298,2.909
201.2870,2.9328,-0.2921,0.0339,2.948
201.2950,2.8416,-0.2735,0.0565,2.855
201.3040,2.6004,-0.4500,0.1191,2.642
201.3120,2.1135,-0.6620,0.1617,2.221
201.3200,1.4003,-0.8897,0.0868,1.661
201.3290,1.1436,-1.0557,0.2073,1.570
201.3420,0.5227,-1.0992,0.1476,1.226
201.3490,-0.0298,-0.9800,0.0434,0.981
201.3540,-0.2785,-0.9715,0.1096,1.017
201.3670,-0.3183,-0.4451,0.3074,0.628
201.3700,-0.5620,-0.0675,0.3056,0.643
201.3790,-0.8718,-0.1904,0.3975,0.977
201.3870,-1.1687,-0.2641,0.4267,1.272
201.3960,-1.2972,-0.1322,0.2775,1.333
201.4050,-1.2559,-0.0092,0.1655,1.267
201.4130,-1.2201,0.0855,0.0883,1.226
201.4210,-1.3625,0.2700,-0.2885,1.419
201.4290,-1.6446,0.4269,-0.4922,1.769
201.4380,-1.9860,0.3798,-0.4278,2.067
201.4480,-2.4447,0.6179,-0.2744,2.537
201.4580,-3.0365,0.7295,-0.3270,3.140
201.4630,-3.7796,0.7144,-0.2322,3.854
201.4750,-4.3642,0.5727,0.0123,4.402
201.4800,-4.5337,0.4220,0.1332,4.555
201.4980,-4.0737,0.5168,0.1520,4.109
201.5000,-4.3933,0.5434,0.1686,4.430
201.5050,-3.5635,1.1661,0.0280,3.750
201.5190,-2.9856,1.5395,-0.1909,3.365
201.5210,-2.5467,2.2495,-0.5108,3.436
201.5300,-2.1325,3.0199,-0.5043,3.731
201.5380,-3.5977,2.6540,-0.7423,4.532
201.5480,-4.8936,1.8396,-0.4644,5.249
201.5550,-5.1062,1.8891,-0.4985,5.467
201.5640,-6.1367,1.2549,-0.2344,6.268
201.5720,-7.4425,0.5630,-0.0514,7.464
201.5800,-7.9291,0.0683,0.4060,7.940
201.5890,-7.4289,0.0460,0.5116,7.447
201.5980,-6.1188,0.3185,0.2283,6.131
201.6070,-6.2683,0.3741,0.1798,6.282
201.6140,-5.4799,0.3855,0.1271,5.495
201.6230,-4.4153,0.5255,0.1078,4.448
201.6380,-5.4995,-0.5195,0.1815,5.527
201.6390,-5.2646,-0.2806,-0.2155,5.276
201.6480,-5.4834,-0.1462,-0.6852,5.528
201.6560,-5.7380,-0.0798,-1.1676,5.856
201.6640,-5.7358,-0.0814,-1.2136,5.863
201.6730,-6.0654,-0.1697,-1.4889,6.248
201.6810,-6.4078,-0.4840,-1.6986,6.647
201.6890,-6.7109,-0.8247,-1.7846,6.993
201.6980,-6.9943,-1.2501,-1.7670,7.322
201.7070,-7.2192,-1.6615,-1.5284,7.564
201.7150,-7.3654,-1.8821,-1.2637,7.706
201.7230,-7.2117,-1.9331,-1.2623,7.572
201.7310,-7.1999,-1.7505,-1.6374,7.588
201.7400,-5.6633,-0.2904,-3.5991,6.716
201.7480,-3.4557,2.1940,-7.0166,8.123
201.7580,-0.2222,7.3697,-8.5554,11.294
201.7660,7.9033,11.9863,2.5773,14.587
201.7740,10.7390,13.6570,9.3882,19.748
201.7820,10.8631,13.5949,9.3150,19.738
201.7900,8.5753,11.0923,3.0269,14.344
201.8010,4.0767,7.4963,-4.1955,9.509
201.8080,0.0554,3.8840,-3.5434,5.258
201.8170,-3.1281,0.6687,-0.4442,3.229
201.8240,-5.5037,-1.9116,-0.4858,5.846
201.8330,-5.2370,-1.9507,-0.5067,5.611
201.8410,-7.4947,-4.1095,-1.7660,8.728
201.8490,-9.2358,-5.6253,-2.1014,11.016
201.8580,-9.3772,-5.4659,-2.2286,11.080
201.8670,-8.7181,-3.6189,-2.1913,9.690
201.8740,-9.2792,-0.7927,-2.5753,9.663
201.8830,-10.9303,2.0718,-3.4404,11.645
201.8910,-10.6954,2.0782,-3.3639,11.403
201.9030,-11.8934,3.9273,-3.7103,13.063
201.9100,-9.9859,3.3246,-3.0183,10.949
201.9190,-6.4034,1.6424,-1.3717,6.751
201.9250,-3.4688,0.1366,0.7618,3.554
201.9360,-1.2471,-0.7400,2.4553,2.852
201.9410,0.0530,-0.9467,3.1758,3.314
201.9500,0.1434,-0.9336,3.1859,3.323
201.9580,0.7079,-0.4856,2.7235,2.856
201.9660,1.0547,0.0045,1.3970,1.750
201.9760,1.4346,0.2802,-0.0174,1.462
201.9830,1.7901,0.2620,-1.2542,2.201
201.9910,2.0256,0.1845,-1.8493,2.749
202.0000,2.1033,0.2038,-1.8072,2.781
202.0090,1.7302,-0.0915,-2.0498,2.684
202.0160,1.0617,-0.4069,-2.2005,2.477
202.0250,0.2738,-0.7426,-2.0255,2.175
202.0330,-0.2356,-0.9601,-1.4250,1.734
202.0430,-0.1363,-1.0201,-1.1600,1.551
202.0540,0.8056,-0.9618,-1.2489,1.770
202.0590,0.8856,-0.9416,-1.2389,1.790
202.0670,1.8468,-0.5677,-1.3047,2.331
202.0750,2.9652,-0.1540,-1.1547,3.186
202.0840,3.0491,0.0449,-0.9100,3.182
202.0920,2.8982,0.0681,-1.3703,3.207
202.1000,2.3535,0.1308,-1.2809,2.683
202.1090,1.4183,0.1154,-0.9586,1.716
202.1200,1.5038,0.1399,-0.9517,1.785
202.1260,0.6101,-0.0508,-0.5563,0.827
202.1340,-0.0467,-0.0841,-0.3986,0.410
202.1430,-0.3503,-0.1364,-0.3402,0.507
202.1510,-0.3391,-0.1289,-0.3809,0.526
202.1600,-0.1123,0.0162,-0.3646,0.382
